index,trial_index,id,price_displayed,key pressed,environment,order,round_instance,task,function_id,quality_check,builtin_rt,end_time,start_time,Participant Public ID,latency,trial_label
140030,3.0,668220.0,1.2,39.0,low,low-high,11.0,rod_fixing,rod_fixing,1.0,148.73500000021886,1554474856208.0,1554474856058.0,BLIND,154.0,3.0 11.0
140031,3.0,668220.0,1.2,39.0,low,low-high,11.0,rod_fixing,rod_fixing,1.0,168.56000000007043,1554474856381.0,1554474856212.0,BLIND,172.0,3.0 11.0
140032,3.0,668220.0,1.2,39.0,low,low-high,11.0,rod_fixing,rod_fixing,1.0,150.41500000006639,1554474856535.0,1554474856384.0,BLIND,154.0,3.0 11.0
140033,3.0,668220.0,1.2,39.0,low,low-high,11.0,rod_fixing,rod_fixing,1.0,179.21500000011292,1554474856717.0,1554474856538.0,BLIND,182.0,3.0 11.0
140034,3.0,668220.0,1.2,39.0,low,low-high,11.0,rod_fixing,rod_fixing,1.0,169.54000000032102,1554474856890.0,1554474856720.0,BLIND,175.0,3.0 11.0
140035,3.0,668220.0,1.2,39.0,low,low-high,11.0,rod_fixing,rod_fixing,1.0,155.95999999959895,1554474857052.0,1554474856895.0,BLIND,160.0,3.0 11.0
140036,3.0,668220.0,1.2,39.0,low,low-high,11.0,rod_fixing,rod_fixing,1.0,169.17999999986202,1554474857225.0,1554474857055.0,BLIND,182.0,3.0 11.0
140352,7.0,668220.0,0.3,39.0,low,low-high,11.0,rod_fixing,rod_fixing,1.0,173.64999999971766,1554474908247.0,1554474908073.0,BLIND,178.0,7.0 11.0
140353,7.0,668220.0,0.3,39.0,low,low-high,11.0,rod_fixing,rod_fixing,1.0,166.5600000001141,1554474908418.0,1554474908251.0,BLIND,171.0,7.0 11.0
140354,7.0,668220.0,0.3,39.0,low,low-high,11.0,rod_fixing,rod_fixing,1.0,177.20000000008443,1554474908600.0,1554474908422.0,BLIND,182.0,7.0 11.0
140355,7.0,668220.0,0.3,39.0,low,low-high,11.0,rod_fixing,rod_fixing,1.0,180.6599999999889,1554474908785.0,1554474908604.0,BLIND,184.0,7.0 11.0
140356,7.0,668220.0,0.3,39.0,low,low-high,11.0,rod_fixing,rod_fixing,1.0,168.15499999983876,1554474908957.0,1554474908788.0,BLIND,174.0,7.0 11.0
140357,7.0,668220.0,0.3,39.0,low,low-high,11.0,rod_fixing,rod_fixing,1.0,178.1350000001112,1554474909141.0,1554474908962.0,BLIND,183.0,7.0 11.0
140358,7.0,668220.0,0.3,39.0,low,low-high,11.0,rod_fixing,rod_fixing,1.0,173.00500000010655,1554474909319.0,1554474909145.0,BLIND,187.0,7.0 11.0
140667,11.0,668220.0,0.7,39.0,low,low-high,11.0,rod_fixing,rod_fixing,1.0,166.4150000001537,1554474959988.0,1554474959821.0,BLIND,172.0,11.0 11.0
140668,11.0,668220.0,0.7,39.0,low,low-high,11.0,rod_fixing,rod_fixing,1.0,158.17500000001746,1554474960152.0,1554474959993.0,BLIND,163.0,11.0 11.0
140669,11.0,668220.0,0.7,39.0,low,low-high,11.0,rod_fixing,rod_fixing,1.0,179.41000000017812,1554474960336.0,1554474960156.0,BLIND,186.0,11.0 11.0
140670,11.0,668220.0,0.7,39.0,low,low-high,11.0,rod_fixing,rod_fixing,1.0,166.1400000002468,1554474960509.0,1554474960342.0,BLIND,171.0,11.0 11.0
140671,11.0,668220.0,0.7,39.0,low,low-high,11.0,rod_fixing,rod_fixing,1.0,169.5549999999348,1554474960684.0,1554474960513.0,BLIND,175.0,11.0 11.0
140672,11.0,668220.0,0.7,39.0,low,low-high,11.0,rod_fixing,rod_fixing,1.0,158.39499999993131,1554474960847.0,1554474960688.0,BLIND,334.0,11.0 11.0
141073,4.0,668220.0,1.8,39.0,low,low-high,21.0,rod_fixing,rod_fixing,1.0,166.16000000020722,1554475043471.0,1554475043304.0,BLIND,170.0,4.0 21.0
141074,4.0,668220.0,1.8,39.0,low,low-high,21.0,rod_fixing,rod_fixing,1.0,158.42000000021653,1554475043633.0,1554475043474.0,BLIND,162.0,4.0 21.0
141075,4.0,668220.0,1.8,39.0,low,low-high,21.0,rod_fixing,rod_fixing,1.0,169.74500000016997,1554475043807.0,1554475043636.0,BLIND,174.0,4.0 21.0
141076,4.0,668220.0,1.8,39.0,low,low-high,21.0,rod_fixing,rod_fixing,1.0,180.47999999998137,1554475043991.0,1554475043810.0,BLIND,184.0,4.0 21.0
141077,4.0,668220.0,1.8,39.0,low,low-high,21.0,rod_fixing,rod_fixing,1.0,173.5950000002049,1554475044168.0,1554475043994.0,BLIND,178.0,4.0 21.0
141078,4.0,668220.0,1.8,39.0,low,low-high,21.0,rod_fixing,rod_fixing,1.0,189.35499999998137,1554475044362.0,1554475044172.0,BLIND,350.0,4.0 21.0
141401,8.0,668220.0,0.7,39.0,low,low-high,21.0,rod_fixing,rod_fixing,1.0,167.1500000002561,1554475095001.0,1554475094833.0,BLIND,172.0,8.0 21.0
141402,8.0,668220.0,0.7,39.0,low,low-high,21.0,rod_fixing,rod_fixing,1.0,182.93000000040047,1554475095189.0,1554475095005.0,BLIND,189.0,8.0 21.0
141403,8.0,668220.0,0.7,39.0,low,low-high,21.0,rod_fixing,rod_fixing,1.0,166.78000000002794,1554475095361.0,1554475095194.0,BLIND,172.0,8.0 21.0
141404,8.0,668220.0,0.7,39.0,low,low-high,21.0,rod_fixing,rod_fixing,1.0,168.6949999998324,1554475095535.0,1554475095366.0,BLIND,174.0,8.0 21.0
141405,8.0,668220.0,0.7,39.0,low,low-high,21.0,rod_fixing,rod_fixing,1.0,166.78499999985797,1554475095708.0,1554475095540.0,BLIND,172.0,8.0 21.0
141406,8.0,668220.0,0.7,39.0,low,low-high,21.0,rod_fixing,rod_fixing,1.0,148.11499999993245,1554475095860.0,1554475095712.0,BLIND,152.0,8.0 21.0
141407,8.0,668220.0,0.7,39.0,low,low-high,21.0,rod_fixing,rod_fixing,1.0,178.72499999974391,1554475096043.0,1554475095864.0,BLIND,198.0,8.0 21.0
141645,11.0,668220.0,1.2,39.0,low,low-high,21.0,rod_fixing,rod_fixing,1.0,179.85499999986496,1554475134211.0,1554475134030.0,BLIND,186.0,11.0 21.0
141646,11.0,668220.0,1.2,39.0,low,low-high,21.0,rod_fixing,rod_fixing,1.0,206.31999999977413,1554475134423.0,1554475134216.0,BLIND,213.0,11.0 21.0
141647,11.0,668220.0,1.2,39.0,low,low-high,21.0,rod_fixing,rod_fixing,1.0,197.11999999982072,1554475134626.0,1554475134429.0,BLIND,203.0,11.0 21.0
141648,11.0,668220.0,1.2,39.0,low,low-high,21.0,rod_fixing,rod_fixing,1.0,188.4549999999581,1554475134821.0,1554475134632.0,BLIND,194.0,11.0 21.0
141649,11.0,668220.0,1.2,39.0,low,low-high,21.0,rod_fixing,rod_fixing,1.0,176.31500000017695,1554475135003.0,1554475134826.0,BLIND,182.0,11.0 21.0
141650,11.0,668220.0,1.2,39.0,low,low-high,21.0,rod_fixing,rod_fixing,1.0,180.83500000013737,1554475135190.0,1554475135008.0,BLIND,187.0,11.0 21.0
141651,11.0,668220.0,1.2,39.0,low,low-high,21.0,rod_fixing,rod_fixing,1.0,158.17500000004657,1554475135354.0,1554475135195.0,BLIND,179.0,11.0 21.0
141996,3.0,668220.0,1.2,39.0,high,high-low,12.0,rod_fixing,rod_fixing,1.0,175.3300000000745,1554475233359.0,1554475233182.0,BLIND,183.0,3.0 12.0
141997,3.0,668220.0,1.2,39.0,high,high-low,12.0,rod_fixing,rod_fixing,1.0,137.09000000020023,1554475233502.0,1554475233365.0,BLIND,142.0,3.0 12.0
141998,3.0,668220.0,1.2,39.0,high,high-low,12.0,rod_fixing,rod_fixing,1.0,156.4100000000908,1554475233664.0,1554475233507.0,BLIND,162.0,3.0 12.0
141999,3.0,668220.0,1.2,39.0,high,high-low,12.0,rod_fixing,rod_fixing,1.0,167.62999999994645,1554475233837.0,1554475233669.0,BLIND,174.0,3.0 12.0
142000,3.0,668220.0,1.2,39.0,high,high-low,12.0,rod_fixing,rod_fixing,1.0,159.94500000029802,1554475234003.0,1554475233843.0,BLIND,166.0,3.0 12.0
142001,3.0,668220.0,1.2,39.0,high,high-low,12.0,rod_fixing,rod_fixing,1.0,155.26499999989755,1554475234165.0,1554475234009.0,BLIND,162.0,3.0 12.0
142002,3.0,668220.0,1.2,39.0,high,high-low,12.0,rod_fixing,rod_fixing,1.0,168.1400000002468,1554475234339.0,1554475234171.0,BLIND,192.0,3.0 12.0
142323,7.0,668220.0,0.3,39.0,high,high-low,12.0,rod_fixing,rod_fixing,1.0,145.1449999999604,1554475285374.0,1554475285228.0,BLIND,151.0,7.0 12.0
142324,7.0,668220.0,0.3,39.0,high,high-low,12.0,rod_fixing,rod_fixing,1.0,148.13000000000466,1554475285528.0,1554475285379.0,BLIND,153.0,7.0 12.0
142325,7.0,668220.0,0.3,39.0,high,high-low,12.0,rod_fixing,rod_fixing,1.0,179.00999999983466,1554475285712.0,1554475285532.0,BLIND,185.0,7.0 12.0
142326,7.0,668220.0,0.3,39.0,high,high-low,12.0,rod_fixing,rod_fixing,1.0,158.2250000000931,1554475285875.0,1554475285717.0,BLIND,163.0,7.0 12.0
142327,7.0,668220.0,0.3,39.0,high,high-low,12.0,rod_fixing,rod_fixing,1.0,158.26999999990218,1554475286039.0,1554475285880.0,BLIND,164.0,7.0 12.0
142328,7.0,668220.0,0.3,39.0,high,high-low,12.0,rod_fixing,rod_fixing,1.0,171.0299999999697,1554475286215.0,1554475286044.0,BLIND,347.0,7.0 12.0
142638,11.0,668220.0,0.7,39.0,high,high-low,12.0,rod_fixing,rod_fixing,1.0,116.51500000024679,1554475337814.0,1554475337697.0,BLIND,123.0,11.0 12.0
142639,11.0,668220.0,0.7,39.0,high,high-low,12.0,rod_fixing,rod_fixing,1.0,155.39500000025146,1554475337976.0,1554475337820.0,BLIND,161.0,11.0 12.0
142640,11.0,668220.0,0.7,39.0,high,high-low,12.0,rod_fixing,rod_fixing,1.0,167.6600000000326,1554475338149.0,1554475337981.0,BLIND,174.0,11.0 12.0
142641,11.0,668220.0,0.7,39.0,high,high-low,12.0,rod_fixing,rod_fixing,1.0,149.53999999992084,1554475338305.0,1554475338155.0,BLIND,155.0,11.0 12.0
142642,11.0,668220.0,0.7,39.0,high,high-low,12.0,rod_fixing,rod_fixing,1.0,157.70999999996275,1554475338468.0,1554475338310.0,BLIND,164.0,11.0 12.0
142643,11.0,668220.0,0.7,39.0,high,high-low,12.0,rod_fixing,rod_fixing,1.0,155.5100000000093,1554475338630.0,1554475338474.0,BLIND,345.0,11.0 12.0
143033,4.0,668220.0,1.8,39.0,high,high-low,22.0,rod_fixing,rod_fixing,1.0,167.46999999985565,1554475427279.0,1554475427111.0,BLIND,177.0,4.0 22.0
143034,4.0,668220.0,1.8,39.0,high,high-low,22.0,rod_fixing,rod_fixing,1.0,152.92499999993015,1554475427442.0,1554475427288.0,BLIND,158.0,4.0 22.0
143035,4.0,668220.0,1.8,39.0,high,high-low,22.0,rod_fixing,rod_fixing,1.0,158.93499999993946,1554475427605.0,1554475427446.0,BLIND,169.0,4.0 22.0
143036,4.0,668220.0,1.8,39.0,high,high-low,22.0,rod_fixing,rod_fixing,1.0,144.05999999959022,1554475427759.0,1554475427615.0,BLIND,150.0,4.0 22.0
143037,4.0,668220.0,1.8,39.0,high,high-low,22.0,rod_fixing,rod_fixing,1.0,147.23000000009782,1554475427913.0,1554475427765.0,BLIND,154.0,4.0 22.0
143038,4.0,668220.0,1.8,39.0,high,high-low,22.0,rod_fixing,rod_fixing,1.0,154.6699999999255,1554475428074.0,1554475427919.0,BLIND,340.0,4.0 22.0
143370,8.0,668220.0,0.7,39.0,high,high-low,22.0,rod_fixing,rod_fixing,1.0,166.0400000001537,1554475479775.0,1554475479609.0,BLIND,174.0,8.0 22.0
143371,8.0,668220.0,0.7,39.0,high,high-low,22.0,rod_fixing,rod_fixing,1.0,156.4100000000326,1554475479940.0,1554475479783.0,BLIND,164.0,8.0 22.0
143372,8.0,668220.0,0.7,39.0,high,high-low,22.0,rod_fixing,rod_fixing,1.0,166.13999999978114,1554475480113.0,1554475479947.0,BLIND,173.0,8.0 22.0
143373,8.0,668220.0,0.7,39.0,high,high-low,22.0,rod_fixing,rod_fixing,1.0,156.55000000016295,1554475480277.0,1554475480120.0,BLIND,164.0,8.0 22.0
143374,8.0,668220.0,0.7,39.0,high,high-low,22.0,rod_fixing,rod_fixing,1.0,160.9299999999348,1554475480446.0,1554475480284.0,BLIND,170.0,8.0 22.0
143375,8.0,668220.0,0.7,39.0,high,high-low,22.0,rod_fixing,rod_fixing,1.0,174.70000000006985,1554475480629.0,1554475480454.0,BLIND,365.0,8.0 22.0
143617,11.0,668220.0,1.2,39.0,high,high-low,22.0,rod_fixing,rod_fixing,1.0,136.59499999985565,1554475518628.0,1554475518491.0,BLIND,144.0,11.0 22.0
143618,11.0,668220.0,1.2,39.0,high,high-low,22.0,rod_fixing,rod_fixing,1.0,166.0449999999255,1554475518802.0,1554475518635.0,BLIND,174.0,11.0 22.0
143619,11.0,668220.0,1.2,39.0,high,high-low,22.0,rod_fixing,rod_fixing,1.0,165.97999999986496,1554475518975.0,1554475518809.0,BLIND,173.0,11.0 22.0
143620,11.0,668220.0,1.2,39.0,high,high-low,22.0,rod_fixing,rod_fixing,1.0,155.30500000028402,1554475519138.0,1554475518982.0,BLIND,163.0,11.0 22.0
143621,11.0,668220.0,1.2,39.0,high,high-low,22.0,rod_fixing,rod_fixing,1.0,159.29999999981374,1554475519305.0,1554475519145.0,BLIND,166.0,11.0 22.0
143622,11.0,668220.0,1.2,39.0,high,high-low,22.0,rod_fixing,rod_fixing,1.0,136.77999999979508,1554475519449.0,1554475519311.0,BLIND,305.0,11.0 22.0
143965,3.0,668225.0,0.3,39.0,low,low-high,11.0,rod_fixing,rod_fixing,1.0,205.42499981820583,1554474859729.0,1554474859523.0,BLIND,208.0,3.0 11.0
143966,3.0,668225.0,0.3,39.0,low,low-high,11.0,rod_fixing,rod_fixing,1.0,149.56000004895031,1554474859881.0,1554474859731.0,BLIND,151.0,3.0 11.0
143967,3.0,668225.0,0.3,39.0,low,low-high,11.0,rod_fixing,rod_fixing,1.0,166.16500006057322,1554474860049.0,1554474859882.0,BLIND,169.0,3.0 11.0
143968,3.0,668225.0,0.3,39.0,low,low-high,11.0,rod_fixing,rod_fixing,1.0,301.63499992340803,1554474860353.0,1554474860051.0,BLIND,303.0,3.0 11.0
143969,3.0,668225.0,0.3,39.0,low,low-high,11.0,rod_fixing,rod_fixing,1.0,142.2250000759959,1554474860497.0,1554474860354.0,BLIND,144.0,3.0 11.0
143970,3.0,668225.0,0.3,39.0,low,low-high,11.0,rod_fixing,rod_fixing,1.0,143.0149998050183,1554474860641.0,1554474860498.0,BLIND,144.0,3.0 11.0
143971,3.0,668225.0,0.3,39.0,low,low-high,11.0,rod_fixing,rod_fixing,1.0,302.2849999833852,1554474860945.0,1554474860642.0,BLIND,308.0,3.0 11.0
144167,7.0,668225.0,1.2,39.0,low,low-high,11.0,rod_fixing,rod_fixing,1.0,533.9849998708813,1554474912213.0,1554474911679.0,BLIND,536.0,7.0 11.0
144168,7.0,668225.0,1.2,39.0,low,low-high,11.0,rod_fixing,rod_fixing,1.0,157.71499997936192,1554474912373.0,1554474912215.0,BLIND,160.0,7.0 11.0
144169,7.0,668225.0,1.2,39.0,low,low-high,11.0,rod_fixing,rod_fixing,1.0,333.8949999306351,1554474912709.0,1554474912375.0,BLIND,336.0,7.0 11.0
144170,7.0,668225.0,1.2,39.0,low,low-high,11.0,rod_fixing,rod_fixing,1.0,453.75999994575983,1554474913165.0,1554474912711.0,BLIND,456.0,7.0 11.0
144171,7.0,668225.0,1.2,39.0,low,low-high,11.0,rod_fixing,rod_fixing,1.0,157.6549999881536,1554474913325.0,1554474913167.0,BLIND,160.0,7.0 11.0
144172,7.0,668225.0,1.2,39.0,low,low-high,11.0,rod_fixing,rod_fixing,1.0,174.50500000268218,1554474913502.0,1554474913327.0,BLIND,176.0,7.0 11.0
144173,7.0,668225.0,1.2,39.0,low,low-high,11.0,rod_fixing,rod_fixing,1.0,158.5899998899549,1554474913662.0,1554474913503.0,BLIND,165.0,7.0 11.0
144401,11.0,668225.0,2.5,39.0,low,low-high,11.0,rod_fixing,rod_fixing,1.0,197.914999909699,1554474964218.0,1554474964020.0,BLIND,200.0,11.0 11.0
144402,11.0,668225.0,2.5,39.0,low,low-high,11.0,rod_fixing,rod_fixing,1.0,157.40000014193356,1554474964378.0,1554474964220.0,BLIND,160.0,11.0 11.0
144403,11.0,668225.0,2.5,39.0,low,low-high,11.0,rod_fixing,rod_fixing,1.0,134.1949999332428,1554474964514.0,1554474964380.0,BLIND,136.0,11.0 11.0
144404,11.0,668225.0,2.5,39.0,low,low-high,11.0,rod_fixing,rod_fixing,1.0,126.12999998964371,1554474964642.0,1554474964516.0,BLIND,128.0,11.0 11.0
144405,11.0,668225.0,2.5,39.0,low,low-high,11.0,rod_fixing,rod_fixing,1.0,125.57499995455144,1554474964770.0,1554474964644.0,BLIND,127.0,11.0 11.0
144406,11.0,668225.0,2.5,39.0,low,low-high,11.0,rod_fixing,rod_fixing,1.0,126.60499988123777,1554474964898.0,1554474964771.0,BLIND,244.0,11.0 11.0
144797,4.0,668225.0,1.2,39.0,low,low-high,21.0,rod_fixing,rod_fixing,1.0,141.52500010095537,1554475046270.0,1554475046129.0,BLIND,144.0,4.0 21.0
144798,4.0,668225.0,1.2,39.0,low,low-high,21.0,rod_fixing,rod_fixing,1.0,204.95499996468425,1554475046478.0,1554475046273.0,BLIND,207.0,4.0 21.0
144799,4.0,668225.0,1.2,39.0,low,low-high,21.0,rod_fixing,rod_fixing,1.0,293.9800000749528,1554475046775.0,1554475046480.0,BLIND,297.0,4.0 21.0
144800,4.0,668225.0,1.2,39.0,low,low-high,21.0,rod_fixing,rod_fixing,1.0,132.70499999634922,1554475046910.0,1554475046777.0,BLIND,135.0,4.0 21.0
144801,4.0,668225.0,1.2,39.0,low,low-high,21.0,rod_fixing,rod_fixing,1.0,190.18999999389047,1554475047102.0,1554475046912.0,BLIND,193.0,4.0 21.0
144802,4.0,668225.0,1.2,39.0,low,low-high,21.0,rod_fixing,rod_fixing,1.0,357.4599998537451,1554475047462.0,1554475047105.0,BLIND,524.0,4.0 21.0
145088,8.0,668225.0,1.8,39.0,low,low-high,21.0,rod_fixing,rod_fixing,1.0,165.49500008113682,1554475099250.0,1554475099085.0,BLIND,168.0,8.0 21.0
145089,8.0,668225.0,1.8,39.0,low,low-high,21.0,rod_fixing,rod_fixing,1.0,140.99500002339482,1554475099394.0,1554475099253.0,BLIND,143.0,8.0 21.0
145090,8.0,668225.0,1.8,39.0,low,low-high,21.0,rod_fixing,rod_fixing,1.0,118.58999985270201,1554475099515.0,1554475099396.0,BLIND,121.0,8.0 21.0
145091,8.0,668225.0,1.8,39.0,low,low-high,21.0,rod_fixing,rod_fixing,1.0,133.66999989375472,1554475099651.0,1554475099517.0,BLIND,135.0,8.0 21.0
145092,8.0,668225.0,1.8,39.0,low,low-high,21.0,rod_fixing,rod_fixing,1.0,158.12499984167513,1554475099810.0,1554475099652.0,BLIND,160.0,8.0 21.0
145093,8.0,668225.0,1.8,39.0,low,low-high,21.0,rod_fixing,rod_fixing,1.0,141.7050000745803,1554475099954.0,1554475099812.0,BLIND,293.0,8.0 21.0
145237,11.0,668225.0,2.5,39.0,low,low-high,21.0,rod_fixing,rod_fixing,1.0,173.35000005550685,1554475138047.0,1554475137874.0,BLIND,176.0,11.0 21.0
145238,11.0,668225.0,2.5,39.0,low,low-high,21.0,rod_fixing,rod_fixing,1.0,300.8149999659508,1554475138351.0,1554475138050.0,BLIND,304.0,11.0 21.0
145239,11.0,668225.0,2.5,39.0,low,low-high,21.0,rod_fixing,rod_fixing,1.0,149.3750000372529,1554475138503.0,1554475138354.0,BLIND,152.0,11.0 21.0
145240,11.0,668225.0,2.5,39.0,low,low-high,21.0,rod_fixing,rod_fixing,1.0,140.67999995313585,1554475138647.0,1554475138506.0,BLIND,143.0,11.0 21.0
145241,11.0,668225.0,2.5,39.0,low,low-high,21.0,rod_fixing,rod_fixing,1.0,126.43499998375772,1554475138776.0,1554475138649.0,BLIND,129.0,11.0 21.0
145242,11.0,668225.0,2.5,39.0,low,low-high,21.0,rod_fixing,rod_fixing,1.0,140.90500003658238,1554475138919.0,1554475138778.0,BLIND,143.0,11.0 21.0
145243,11.0,668225.0,2.5,39.0,low,low-high,21.0,rod_fixing,rod_fixing,1.0,149.98500002548099,1554475139072.0,1554475138921.0,BLIND,159.0,11.0 21.0
145548,3.0,668225.0,0.3,39.0,high,high-low,12.0,rod_fixing,rod_fixing,1.0,172.64000000432134,1554475210651.0,1554475210478.0,BLIND,176.0,3.0 12.0
145549,3.0,668225.0,0.3,39.0,high,high-low,12.0,rod_fixing,rod_fixing,1.0,125.50999992527069,1554475210780.0,1554475210654.0,BLIND,128.0,3.0 12.0
145550,3.0,668225.0,0.3,39.0,high,high-low,12.0,rod_fixing,rod_fixing,1.0,229.3599999975413,1554475211012.0,1554475210782.0,BLIND,232.0,3.0 12.0
145551,3.0,668225.0,0.3,39.0,high,high-low,12.0,rod_fixing,rod_fixing,1.0,245.43999996967614,1554475211260.0,1554475211014.0,BLIND,248.0,3.0 12.0
145552,3.0,668225.0,0.3,39.0,high,high-low,12.0,rod_fixing,rod_fixing,1.0,93.21500011719765,1554475211355.0,1554475211262.0,BLIND,95.0,3.0 12.0
145553,3.0,668225.0,0.3,39.0,high,high-low,12.0,rod_fixing,rod_fixing,1.0,118.45000018365678,1554475211476.0,1554475211357.0,BLIND,255.0,3.0 12.0
145871,7.0,668225.0,1.2,39.0,high,high-low,12.0,rod_fixing,rod_fixing,1.0,117.33999988064171,1554475262576.0,1554475262459.0,BLIND,119.0,7.0 12.0
145872,7.0,668225.0,1.2,39.0,high,high-low,12.0,rod_fixing,rod_fixing,1.0,133.8700000196695,1554475262712.0,1554475262578.0,BLIND,136.0,7.0 12.0
145873,7.0,668225.0,1.2,39.0,high,high-low,12.0,rod_fixing,rod_fixing,1.0,110.06999993696807,1554475262824.0,1554475262714.0,BLIND,112.0,7.0 12.0
145874,7.0,668225.0,1.2,39.0,high,high-low,12.0,rod_fixing,rod_fixing,1.0,142.18500000424686,1554475262968.0,1554475262826.0,BLIND,145.0,7.0 12.0
145875,7.0,668225.0,1.2,39.0,high,high-low,12.0,rod_fixing,rod_fixing,1.0,125.6699999794364,1554475263097.0,1554475262971.0,BLIND,128.0,7.0 12.0
145876,7.0,668225.0,1.2,39.0,high,high-low,12.0,rod_fixing,rod_fixing,1.0,116.9950000476092,1554475263216.0,1554475263099.0,BLIND,269.0,7.0 12.0
146198,11.0,668225.0,2.5,39.0,high,high-low,12.0,rod_fixing,rod_fixing,1.0,157.2800001595169,1554475315006.0,1554475314848.0,BLIND,160.0,11.0 12.0
146199,11.0,668225.0,2.5,39.0,high,high-low,12.0,rod_fixing,rod_fixing,1.0,132.77000002563,1554475315141.0,1554475315008.0,BLIND,136.0,11.0 12.0
146200,11.0,668225.0,2.5,39.0,high,high-low,12.0,rod_fixing,rod_fixing,1.0,140.76999993994832,1554475315285.0,1554475315144.0,BLIND,144.0,11.0 12.0
146201,11.0,668225.0,2.5,39.0,high,high-low,12.0,rod_fixing,rod_fixing,1.0,277.1900000516325,1554475315566.0,1554475315288.0,BLIND,280.0,11.0 12.0
146202,11.0,668225.0,2.5,39.0,high,high-low,12.0,rod_fixing,rod_fixing,1.0,133.26000003144145,1554475315702.0,1554475315568.0,BLIND,137.0,11.0 12.0
146203,11.0,668225.0,2.5,39.0,high,high-low,12.0,rod_fixing,rod_fixing,1.0,252.53499997779727,1554475315958.0,1554475315705.0,BLIND,398.0,11.0 12.0
146584,4.0,668225.0,1.2,39.0,high,high-low,22.0,rod_fixing,rod_fixing,1.0,172.81999997794628,1554475393266.0,1554475393093.0,BLIND,176.0,4.0 22.0
146585,4.0,668225.0,1.2,39.0,high,high-low,22.0,rod_fixing,rod_fixing,1.0,132.95499980449677,1554475393403.0,1554475393269.0,BLIND,137.0,4.0 22.0
146586,4.0,668225.0,1.2,39.0,high,high-low,22.0,rod_fixing,rod_fixing,1.0,123.93000000156462,1554475393530.0,1554475393406.0,BLIND,126.0,4.0 22.0
146587,4.0,668225.0,1.2,39.0,high,high-low,22.0,rod_fixing,rod_fixing,1.0,133.46499996259809,1554475393666.0,1554475393532.0,BLIND,136.0,4.0 22.0
146588,4.0,668225.0,1.2,39.0,high,high-low,22.0,rod_fixing,rod_fixing,1.0,149.36499996110797,1554475393818.0,1554475393668.0,BLIND,153.0,4.0 22.0
146589,4.0,668225.0,1.2,39.0,high,high-low,22.0,rod_fixing,rod_fixing,1.0,132.2600001003593,1554475393954.0,1554475393821.0,BLIND,272.0,4.0 22.0
146933,8.0,668225.0,1.8,39.0,high,high-low,22.0,rod_fixing,rod_fixing,1.0,180.88499992154541,1554475445239.0,1554475445057.0,BLIND,185.0,8.0 22.0
146934,8.0,668225.0,1.8,39.0,high,high-low,22.0,rod_fixing,rod_fixing,1.0,108.73500001616777,1554475445351.0,1554475445242.0,BLIND,111.0,8.0 22.0
146935,8.0,668225.0,1.8,39.0,high,high-low,22.0,rod_fixing,rod_fixing,1.0,133.36000009439886,1554475445487.0,1554475445353.0,BLIND,136.0,8.0 22.0
146936,8.0,668225.0,1.8,39.0,high,high-low,22.0,rod_fixing,rod_fixing,1.0,124.94999985210598,1554475445615.0,1554475445489.0,BLIND,129.0,8.0 22.0
146937,8.0,668225.0,1.8,39.0,high,high-low,22.0,rod_fixing,rod_fixing,1.0,149.11500015296042,1554475445767.0,1554475445618.0,BLIND,151.0,8.0 22.0
146938,8.0,668225.0,1.8,39.0,high,high-low,22.0,rod_fixing,rod_fixing,1.0,149.22500005923212,1554475445919.0,1554475445769.0,BLIND,313.0,8.0 22.0
147165,11.0,668225.0,2.5,39.0,high,high-low,22.0,rod_fixing,rod_fixing,1.0,260.54499996826047,1554475484555.0,1554475484295.0,BLIND,264.0,11.0 22.0
147166,11.0,668225.0,2.5,39.0,high,high-low,22.0,rod_fixing,rod_fixing,1.0,132.4350000359118,1554475484691.0,1554475484559.0,BLIND,135.0,11.0 22.0
147167,11.0,668225.0,2.5,39.0,high,high-low,22.0,rod_fixing,rod_fixing,1.0,149.1749999113381,1554475484844.0,1554475484694.0,BLIND,152.0,11.0 22.0
147168,11.0,668225.0,2.5,39.0,high,high-low,22.0,rod_fixing,rod_fixing,1.0,133.0999999772757,1554475484980.0,1554475484846.0,BLIND,136.0,11.0 22.0
147169,11.0,668225.0,2.5,39.0,high,high-low,22.0,rod_fixing,rod_fixing,1.0,116.71500001102686,1554475485099.0,1554475484982.0,BLIND,120.0,11.0 22.0
147170,11.0,668225.0,2.5,39.0,high,high-low,22.0,rod_fixing,rod_fixing,1.0,149.19499983079731,1554475485251.0,1554475485102.0,BLIND,153.0,11.0 22.0
147171,11.0,668225.0,2.5,39.0,high,high-low,22.0,rod_fixing,rod_fixing,1.0,116.3749999832362,1554475485372.0,1554475485255.0,BLIND,129.0,11.0 22.0
174,3.0,668237.0,0.7,39.0,high,high-low,11.0,rod_fixing,rod_fixing,1.0,150.02999996067956,1554475361974.0,1554475361823.0,BLIND,160.0,3.0 11.0
175,3.0,668237.0,0.7,39.0,high,high-low,11.0,rod_fixing,rod_fixing,1.0,156.1249999795109,1554475362141.0,1554475361983.0,BLIND,167.0,3.0 11.0
176,3.0,668237.0,0.7,39.0,high,high-low,11.0,rod_fixing,rod_fixing,1.0,137.09000003291294,1554475362288.0,1554475362150.0,BLIND,143.0,3.0 11.0
177,3.0,668237.0,0.7,39.0,high,high-low,11.0,rod_fixing,rod_fixing,1.0,152.07000001100823,1554475362447.0,1554475362293.0,BLIND,159.0,3.0 11.0
178,3.0,668237.0,0.7,39.0,high,high-low,11.0,rod_fixing,rod_fixing,1.0,152.48499996960163,1554475362605.0,1554475362452.0,BLIND,157.0,3.0 11.0
179,3.0,668237.0,0.7,39.0,high,high-low,11.0,rod_fixing,rod_fixing,1.0,163.2850000169128,1554475362773.0,1554475362609.0,BLIND,358.0,3.0 11.0
463,7.0,668237.0,2.5,39.0,high,high-low,11.0,rod_fixing,rod_fixing,1.0,166.71499999938533,1554475414464.0,1554475414296.0,BLIND,175.0,7.0 11.0
464,7.0,668237.0,2.5,39.0,high,high-low,11.0,rod_fixing,rod_fixing,1.0,114.72500005038457,1554475414588.0,1554475414471.0,BLIND,124.0,7.0 11.0
465,7.0,668237.0,2.5,39.0,high,high-low,11.0,rod_fixing,rod_fixing,1.0,117.3149999813177,1554475414713.0,1554475414595.0,BLIND,125.0,7.0 11.0
466,7.0,668237.0,2.5,39.0,high,high-low,11.0,rod_fixing,rod_fixing,1.0,134.09999996656552,1554475414855.0,1554475414720.0,BLIND,141.0,7.0 11.0
467,7.0,668237.0,2.5,39.0,high,high-low,11.0,rod_fixing,rod_fixing,1.0,138.55500001227483,1554475415000.0,1554475414861.0,BLIND,144.0,7.0 11.0
468,7.0,668237.0,2.5,39.0,high,high-low,11.0,rod_fixing,rod_fixing,1.0,151.91499999491498,1554475415159.0,1554475415005.0,BLIND,312.0,7.0 11.0
760,11.0,668237.0,1.2,39.0,high,high-low,11.0,rod_fixing,rod_fixing,1.0,178.88500000117347,1554475467118.0,1554475466938.0,BLIND,186.0,11.0 11.0
761,11.0,668237.0,1.2,39.0,high,high-low,11.0,rod_fixing,rod_fixing,1.0,151.67500003008172,1554475467277.0,1554475467124.0,BLIND,161.0,11.0 11.0
762,11.0,668237.0,1.2,39.0,high,high-low,11.0,rod_fixing,rod_fixing,1.0,153.11000001383943,1554475467440.0,1554475467285.0,BLIND,161.0,11.0 11.0
763,11.0,668237.0,1.2,39.0,high,high-low,11.0,rod_fixing,rod_fixing,1.0,155.37499997299162,1554475467603.0,1554475467446.0,BLIND,164.0,11.0 11.0
764,11.0,668237.0,1.2,39.0,high,high-low,11.0,rod_fixing,rod_fixing,1.0,153.62500003539023,1554475467765.0,1554475467610.0,BLIND,162.0,11.0 11.0
765,11.0,668237.0,1.2,39.0,high,high-low,11.0,rod_fixing,rod_fixing,1.0,153.4600000013597,1554475467926.0,1554475467772.0,BLIND,353.0,11.0 11.0
1140,4.0,668237.0,0.3,39.0,high,high-low,21.0,rod_fixing,rod_fixing,1.0,136.9249999988824,1554475542626.0,1554475542487.0,BLIND,147.0,4.0 21.0
1141,4.0,668237.0,0.3,39.0,high,high-low,21.0,rod_fixing,rod_fixing,1.0,143.21000000927597,1554475542779.0,1554475542634.0,BLIND,154.0,4.0 21.0
1142,4.0,668237.0,0.3,39.0,high,high-low,21.0,rod_fixing,rod_fixing,1.0,145.96500003244728,1554475542936.0,1554475542788.0,BLIND,160.0,4.0 21.0
1143,4.0,668237.0,0.3,39.0,high,high-low,21.0,rod_fixing,rod_fixing,1.0,143.37000000523403,1554475543093.0,1554475542948.0,BLIND,157.0,4.0 21.0
1144,4.0,668237.0,0.3,39.0,high,high-low,21.0,rod_fixing,rod_fixing,1.0,148.75500003108758,1554475543255.0,1554475543105.0,BLIND,158.0,4.0 21.0
1145,4.0,668237.0,0.3,39.0,high,high-low,21.0,rod_fixing,rod_fixing,1.0,140.40499995462594,1554475543404.0,1554475543263.0,BLIND,151.0,4.0 21.0
1146,4.0,668237.0,0.3,39.0,high,high-low,21.0,rod_fixing,rod_fixing,1.0,136.65000000037253,1554475543552.0,1554475543414.0,BLIND,177.0,4.0 21.0
1460,8.0,668237.0,0.3,39.0,high,high-low,21.0,rod_fixing,rod_fixing,1.0,158.52500003529713,1554475595015.0,1554475594856.0,BLIND,169.0,8.0 21.0
1461,8.0,668237.0,0.3,39.0,high,high-low,21.0,rod_fixing,rod_fixing,1.0,152.83500001532957,1554475595179.0,1554475595025.0,BLIND,159.0,8.0 21.0
1462,8.0,668237.0,0.3,39.0,high,high-low,21.0,rod_fixing,rod_fixing,1.0,162.36499999649826,1554475595347.0,1554475595184.0,BLIND,172.0,8.0 21.0
1463,8.0,668237.0,0.3,39.0,high,high-low,21.0,rod_fixing,rod_fixing,1.0,170.64500000560656,1554475595527.0,1554475595356.0,BLIND,181.0,8.0 21.0
1464,8.0,668237.0,0.3,39.0,high,high-low,21.0,rod_fixing,rod_fixing,1.0,163.07000000961125,1554475595702.0,1554475595537.0,BLIND,176.0,8.0 21.0
1465,8.0,668237.0,0.3,39.0,high,high-low,21.0,rod_fixing,rod_fixing,1.0,157.26500004529953,1554475595871.0,1554475595713.0,BLIND,170.0,8.0 21.0
1466,8.0,668237.0,0.3,39.0,high,high-low,21.0,rod_fixing,rod_fixing,1.0,152.95000001788142,1554475596037.0,1554475595883.0,BLIND,188.0,8.0 21.0
1641,11.0,668237.0,1.8,39.0,high,high-low,21.0,rod_fixing,rod_fixing,1.0,129.14999999338758,1554475634293.0,1554475634163.0,BLIND,143.0,11.0 21.0
1642,11.0,668237.0,1.8,39.0,high,high-low,21.0,rod_fixing,rod_fixing,1.0,133.9799999841489,1554475634441.0,1554475634306.0,BLIND,145.0,11.0 21.0
1643,11.0,668237.0,1.8,39.0,high,high-low,21.0,rod_fixing,rod_fixing,1.0,148.25499994913116,1554475634601.0,1554475634451.0,BLIND,162.0,11.0 21.0
1644,11.0,668237.0,1.8,39.0,high,high-low,21.0,rod_fixing,rod_fixing,1.0,150.4399999976158,1554475634765.0,1554475634613.0,BLIND,164.0,11.0 21.0
1645,11.0,668237.0,1.8,39.0,high,high-low,21.0,rod_fixing,rod_fixing,1.0,157.1150000090711,1554475634936.0,1554475634777.0,BLIND,173.0,11.0 21.0
1646,11.0,668237.0,1.8,39.0,high,high-low,21.0,rod_fixing,rod_fixing,1.0,143.09999998658898,1554475635095.0,1554475634950.0,BLIND,309.0,11.0 21.0
1968,3.0,668237.0,0.7,39.0,low,high-low,12.0,rod_fixing,rod_fixing,1.0,140.76999999815598,1554475722664.0,1554475722522.0,BLIND,156.0,3.0 12.0
1969,3.0,668237.0,0.7,39.0,low,high-low,12.0,rod_fixing,rod_fixing,1.0,142.72499998332933,1554475722822.0,1554475722678.0,BLIND,154.0,3.0 12.0
1970,3.0,668237.0,0.7,39.0,low,high-low,12.0,rod_fixing,rod_fixing,1.0,128.00999998580664,1554475722961.0,1554475722832.0,BLIND,139.0,3.0 12.0
1971,3.0,668237.0,0.7,39.0,low,high-low,12.0,rod_fixing,rod_fixing,1.0,150.71000001626092,1554475723123.0,1554475722971.0,BLIND,160.0,3.0 12.0
1972,3.0,668237.0,0.7,39.0,low,high-low,12.0,rod_fixing,rod_fixing,1.0,138.40499997604638,1554475723270.0,1554475723131.0,BLIND,152.0,3.0 12.0
1973,3.0,668237.0,0.7,39.0,low,high-low,12.0,rod_fixing,rod_fixing,1.0,132.48000002931803,1554475723417.0,1554475723283.0,BLIND,314.0,3.0 12.0
2257,7.0,668237.0,2.5,39.0,low,high-low,12.0,rod_fixing,rod_fixing,1.0,137.9949999973178,1554475774886.0,1554475774747.0,BLIND,154.0,7.0 12.0
2258,7.0,668237.0,2.5,39.0,low,high-low,12.0,rod_fixing,rod_fixing,1.0,157.6350000104867,1554475775060.0,1554475774901.0,BLIND,173.0,7.0 12.0
2259,7.0,668237.0,2.5,39.0,low,high-low,12.0,rod_fixing,rod_fixing,1.0,134.9599999957718,1554475775210.0,1554475775074.0,BLIND,149.0,7.0 12.0
2260,7.0,668237.0,2.5,39.0,low,high-low,12.0,rod_fixing,rod_fixing,1.0,140.11500001652166,1554475775363.0,1554475775223.0,BLIND,154.0,7.0 12.0
2261,7.0,668237.0,2.5,39.0,low,high-low,12.0,rod_fixing,rod_fixing,1.0,121.21500005014241,1554475775500.0,1554475775377.0,BLIND,134.0,7.0 12.0
2262,7.0,668237.0,2.5,39.0,low,high-low,12.0,rod_fixing,rod_fixing,1.0,112.76500002713873,1554475775625.0,1554475775511.0,BLIND,301.0,7.0 12.0
2555,11.0,668237.0,1.2,39.0,low,high-low,12.0,rod_fixing,rod_fixing,1.0,133.5500000277534,1554475827603.0,1554475827468.0,BLIND,150.0,11.0 12.0
2556,11.0,668237.0,1.2,39.0,low,high-low,12.0,rod_fixing,rod_fixing,1.0,144.92000004975125,1554475827764.0,1554475827618.0,BLIND,162.0,11.0 12.0
2557,11.0,668237.0,1.2,39.0,low,high-low,12.0,rod_fixing,rod_fixing,1.0,134.39500000094995,1554475827915.0,1554475827780.0,BLIND,152.0,11.0 12.0
2558,11.0,668237.0,1.2,39.0,low,high-low,12.0,rod_fixing,rod_fixing,1.0,143.64000002387908,1554475828076.0,1554475827932.0,BLIND,158.0,11.0 12.0
2559,11.0,668237.0,1.2,39.0,low,high-low,12.0,rod_fixing,rod_fixing,1.0,141.91999996546656,1554475828234.0,1554475828090.0,BLIND,158.0,11.0 12.0
2560,11.0,668237.0,1.2,39.0,low,high-low,12.0,rod_fixing,rod_fixing,1.0,141.15000003948808,1554475828391.0,1554475828248.0,BLIND,351.0,11.0 12.0
3221,8.0,668237.0,0.3,39.0,low,high-low,22.0,rod_fixing,rod_fixing,1.0,161.68000001925975,1554475951175.0,1554475951012.0,BLIND,180.0,8.0 22.0
3222,8.0,668237.0,0.3,39.0,low,high-low,22.0,rod_fixing,rod_fixing,1.0,207.53499999409541,1554475951401.0,1554475951192.0,BLIND,225.0,8.0 22.0
3223,8.0,668237.0,0.3,39.0,low,high-low,22.0,rod_fixing,rod_fixing,1.0,204.78500000899655,1554475951622.0,1554475951417.0,BLIND,224.0,8.0 22.0
3224,8.0,668237.0,0.3,39.0,low,high-low,22.0,rod_fixing,rod_fixing,1.0,181.54000001959503,1554475951823.0,1554475951641.0,BLIND,202.0,8.0 22.0
3225,8.0,668237.0,0.3,39.0,low,high-low,22.0,rod_fixing,rod_fixing,1.0,174.49499998474494,1554475952019.0,1554475951843.0,BLIND,187.0,8.0 22.0
3226,8.0,668237.0,0.3,39.0,low,high-low,22.0,rod_fixing,rod_fixing,1.0,195.77500002924356,1554475952227.0,1554475952030.0,BLIND,213.0,8.0 22.0
3227,8.0,668237.0,0.3,39.0,low,high-low,22.0,rod_fixing,rod_fixing,1.0,191.37999997474256,1554475952436.0,1554475952243.0,BLIND,239.0,8.0 22.0
3408,11.0,668237.0,1.8,39.0,low,high-low,22.0,rod_fixing,rod_fixing,1.0,170.73000001255426,1554475990452.0,1554475990280.0,BLIND,188.0,11.0 22.0
3409,11.0,668237.0,1.8,39.0,low,high-low,22.0,rod_fixing,rod_fixing,1.0,128.41000000480562,1554475990598.0,1554475990468.0,BLIND,144.0,11.0 22.0
3410,11.0,668237.0,1.8,39.0,low,high-low,22.0,rod_fixing,rod_fixing,1.0,153.64000003319234,1554475990767.0,1554475990612.0,BLIND,170.0,11.0 22.0
3411,11.0,668237.0,1.8,39.0,low,high-low,22.0,rod_fixing,rod_fixing,1.0,145.79500001855197,1554475990929.0,1554475990782.0,BLIND,166.0,11.0 22.0
3412,11.0,668237.0,1.8,39.0,low,high-low,22.0,rod_fixing,rod_fixing,1.0,152.8800000087358,1554475991102.0,1554475990948.0,BLIND,175.0,11.0 22.0
3413,11.0,668237.0,1.8,39.0,low,high-low,22.0,rod_fixing,rod_fixing,1.0,143.5850000125356,1554475991268.0,1554475991123.0,BLIND,160.0,11.0 22.0
3758,3.0,668239.0,0.7,39.0,high,high-low,11.0,rod_fixing,rod_fixing,1.0,128.7300000039977,1554475242042.0,1554475241913.0,BLIND,130.0,3.0 11.0
3759,3.0,668239.0,0.7,39.0,high,high-low,11.0,rod_fixing,rod_fixing,1.0,127.76999999914551,1554475242171.0,1554475242043.0,BLIND,129.0,3.0 11.0
3760,3.0,668239.0,0.7,39.0,high,high-low,11.0,rod_fixing,rod_fixing,1.0,129.30999999662166,1554475242302.0,1554475242172.0,BLIND,132.0,3.0 11.0
3761,3.0,668239.0,0.7,39.0,high,high-low,11.0,rod_fixing,rod_fixing,1.0,124.27499999466818,1554475242429.0,1554475242304.0,BLIND,127.0,3.0 11.0
3762,3.0,668239.0,0.7,39.0,high,high-low,11.0,rod_fixing,rod_fixing,1.0,129.77499999396971,1554475242561.0,1554475242431.0,BLIND,131.0,3.0 11.0
3763,3.0,668239.0,0.7,39.0,high,high-low,11.0,rod_fixing,rod_fixing,1.0,129.20000000303844,1554475242692.0,1554475242562.0,BLIND,263.0,3.0 11.0
4121,7.0,668239.0,2.5,39.0,high,high-low,11.0,rod_fixing,rod_fixing,1.0,257.7700000038021,1554475293769.0,1554475293511.0,BLIND,265.0,7.0 11.0
4122,7.0,668239.0,2.5,39.0,high,high-low,11.0,rod_fixing,rod_fixing,1.0,129.03499999811172,1554475293905.0,1554475293776.0,BLIND,131.0,7.0 11.0
4123,7.0,668239.0,2.5,39.0,high,high-low,11.0,rod_fixing,rod_fixing,1.0,137.8499999991618,1554475294045.0,1554475293907.0,BLIND,139.0,7.0 11.0
4124,7.0,668239.0,2.5,39.0,high,high-low,11.0,rod_fixing,rod_fixing,1.0,135.67999999941094,1554475294182.0,1554475294046.0,BLIND,138.0,7.0 11.0
4125,7.0,668239.0,2.5,39.0,high,high-low,11.0,rod_fixing,rod_fixing,1.0,137.39499999792315,1554475294321.0,1554475294184.0,BLIND,141.0,7.0 11.0
4126,7.0,668239.0,2.5,39.0,high,high-low,11.0,rod_fixing,rod_fixing,1.0,132.64999999955762,1554475294458.0,1554475294325.0,BLIND,134.0,7.0 11.0
4127,7.0,668239.0,2.5,39.0,high,high-low,11.0,rod_fixing,rod_fixing,1.0,132.51499999751104,1554475294592.0,1554475294459.0,BLIND,137.0,7.0 11.0
4469,11.0,668239.0,0.3,39.0,high,high-low,11.0,rod_fixing,rod_fixing,1.0,145.80500000010943,1554475345912.0,1554475345766.0,BLIND,148.0,11.0 11.0
4470,11.0,668239.0,0.3,39.0,high,high-low,11.0,rod_fixing,rod_fixing,1.0,125.63500000396743,1554475346040.0,1554475345914.0,BLIND,127.0,11.0 11.0
4471,11.0,668239.0,0.3,39.0,high,high-low,11.0,rod_fixing,rod_fixing,1.0,140.00499999383464,1554475346181.0,1554475346041.0,BLIND,141.0,11.0 11.0
4472,11.0,668239.0,0.3,39.0,high,high-low,11.0,rod_fixing,rod_fixing,1.0,138.0799999969895,1554475346321.0,1554475346182.0,BLIND,140.0,11.0 11.0
4473,11.0,668239.0,0.3,39.0,high,high-low,11.0,rod_fixing,rod_fixing,1.0,140.41500000166707,1554475346462.0,1554475346322.0,BLIND,142.0,11.0 11.0
4474,11.0,668239.0,0.3,39.0,high,high-low,11.0,rod_fixing,rod_fixing,1.0,140.80500000272878,1554475346605.0,1554475346464.0,BLIND,146.0,11.0 11.0
4475,11.0,668239.0,0.3,39.0,high,high-low,11.0,rod_fixing,rod_fixing,1.0,136.87999999820022,1554475346748.0,1554475346610.0,BLIND,142.0,11.0 11.0
4942,4.0,668239.0,0.1,39.0,high,high-low,21.0,rod_fixing,rod_fixing,1.0,115.49999999988357,1554475468677.0,1554475468561.0,BLIND,117.0,4.0 21.0
4943,4.0,668239.0,0.1,39.0,high,high-low,21.0,rod_fixing,rod_fixing,1.0,121.12499999784632,1554475468800.0,1554475468678.0,BLIND,124.0,4.0 21.0
4944,4.0,668239.0,0.1,39.0,high,high-low,21.0,rod_fixing,rod_fixing,1.0,135.9950000041863,1554475468938.0,1554475468802.0,BLIND,138.0,4.0 21.0
4945,4.0,668239.0,0.1,39.0,high,high-low,21.0,rod_fixing,rod_fixing,1.0,127.16000000364149,1554475469068.0,1554475468940.0,BLIND,129.0,4.0 21.0
4946,4.0,668239.0,0.1,39.0,high,high-low,21.0,rod_fixing,rod_fixing,1.0,129.8049999968498,1554475469200.0,1554475469069.0,BLIND,429.0,4.0 21.0
5296,8.0,668239.0,0.7,39.0,high,high-low,21.0,rod_fixing,rod_fixing,1.0,136.90499999938766,1554475521304.0,1554475521167.0,BLIND,139.0,8.0 21.0
5297,8.0,668239.0,0.7,39.0,high,high-low,21.0,rod_fixing,rod_fixing,1.0,112.59500000596745,1554475521418.0,1554475521306.0,BLIND,114.0,8.0 21.0
5298,8.0,668239.0,0.7,39.0,high,high-low,21.0,rod_fixing,rod_fixing,1.0,124.36499999603257,1554475521544.0,1554475521420.0,BLIND,126.0,8.0 21.0
5299,8.0,668239.0,0.7,39.0,high,high-low,21.0,rod_fixing,rod_fixing,1.0,130.85500000306638,1554475521677.0,1554475521546.0,BLIND,134.0,8.0 21.0
5300,8.0,668239.0,0.7,39.0,high,high-low,21.0,rod_fixing,rod_fixing,1.0,123.35000000166474,1554475521803.0,1554475521680.0,BLIND,496.0,8.0 21.0
5571,11.0,668239.0,1.2,39.0,high,high-low,21.0,rod_fixing,rod_fixing,1.0,139.790000001085,1554475560302.0,1554475560162.0,BLIND,146.0,11.0 21.0
5572,11.0,668239.0,1.2,39.0,high,high-low,21.0,rod_fixing,rod_fixing,1.0,126.74999999580903,1554475560435.0,1554475560308.0,BLIND,129.0,11.0 21.0
5573,11.0,668239.0,1.2,39.0,high,high-low,21.0,rod_fixing,rod_fixing,1.0,123.8249999951222,1554475560562.0,1554475560437.0,BLIND,126.0,11.0 21.0
5574,11.0,668239.0,1.2,39.0,high,high-low,21.0,rod_fixing,rod_fixing,1.0,130.1099999982398,1554475560693.0,1554475560563.0,BLIND,134.0,11.0 21.0
5575,11.0,668239.0,1.2,39.0,high,high-low,21.0,rod_fixing,rod_fixing,1.0,117.47000000468687,1554475560815.0,1554475560697.0,BLIND,124.0,11.0 21.0
5576,11.0,668239.0,1.2,39.0,high,high-low,21.0,rod_fixing,rod_fixing,1.0,97.37499999755528,1554475560919.0,1554475560821.0,BLIND,244.0,11.0 21.0
5922,3.0,668239.0,0.7,39.0,low,high-low,12.0,rod_fixing,rod_fixing,1.0,136.27000000269618,1554475695964.0,1554475695827.0,BLIND,142.0,3.0 12.0
5923,3.0,668239.0,0.7,39.0,low,high-low,12.0,rod_fixing,rod_fixing,1.0,132.28499999968335,1554475696101.0,1554475695969.0,BLIND,134.0,3.0 12.0
5924,3.0,668239.0,0.7,39.0,low,high-low,12.0,rod_fixing,rod_fixing,1.0,130.07999999535969,1554475696234.0,1554475696103.0,BLIND,134.0,3.0 12.0
5925,3.0,668239.0,0.7,39.0,low,high-low,12.0,rod_fixing,rod_fixing,1.0,129.33000000339234,1554475696367.0,1554475696237.0,BLIND,134.0,3.0 12.0
5926,3.0,668239.0,0.7,39.0,low,high-low,12.0,rod_fixing,rod_fixing,1.0,142.13500000187196,1554475696513.0,1554475696371.0,BLIND,144.0,3.0 12.0
5927,3.0,668239.0,0.7,39.0,low,high-low,12.0,rod_fixing,rod_fixing,1.0,136.8099999963306,1554475696652.0,1554475696515.0,BLIND,139.0,3.0 12.0
5928,3.0,668239.0,0.7,39.0,low,high-low,12.0,rod_fixing,rod_fixing,1.0,145.8100000018021,1554475696801.0,1554475696654.0,BLIND,163.0,3.0 12.0
6255,7.0,668239.0,2.5,39.0,low,high-low,12.0,rod_fixing,rod_fixing,1.0,132.6249999983702,1554475748942.0,1554475748809.0,BLIND,135.0,7.0 12.0
6256,7.0,668239.0,2.5,39.0,low,high-low,12.0,rod_fixing,rod_fixing,1.0,130.3649999973131,1554475749075.0,1554475748944.0,BLIND,133.0,7.0 12.0
6257,7.0,668239.0,2.5,39.0,low,high-low,12.0,rod_fixing,rod_fixing,1.0,143.46500000101514,1554475749221.0,1554475749077.0,BLIND,147.0,7.0 12.0
6258,7.0,668239.0,2.5,39.0,low,high-low,12.0,rod_fixing,rod_fixing,1.0,147.85999999730848,1554475749372.0,1554475749224.0,BLIND,155.0,7.0 12.0
6259,7.0,668239.0,2.5,39.0,low,high-low,12.0,rod_fixing,rod_fixing,1.0,135.31000000506174,1554475749515.0,1554475749379.0,BLIND,138.0,7.0 12.0
6260,7.0,668239.0,2.5,39.0,low,high-low,12.0,rod_fixing,rod_fixing,1.0,138.14499999722466,1554475749656.0,1554475749517.0,BLIND,290.0,7.0 12.0
6580,11.0,668239.0,0.3,39.0,low,high-low,12.0,rod_fixing,rod_fixing,1.0,164.64999999885913,1554475800620.0,1554475800455.0,BLIND,167.0,11.0 12.0
6581,11.0,668239.0,0.3,39.0,low,high-low,12.0,rod_fixing,rod_fixing,1.0,121.26500000152737,1554475800743.0,1554475800622.0,BLIND,124.0,11.0 12.0
6582,11.0,668239.0,0.3,39.0,low,high-low,12.0,rod_fixing,rod_fixing,1.0,126.04500000446569,1554475800872.0,1554475800746.0,BLIND,128.0,11.0 12.0
6583,11.0,668239.0,0.3,39.0,low,high-low,12.0,rod_fixing,rod_fixing,1.0,136.71500000054948,1554475801011.0,1554475800874.0,BLIND,141.0,11.0 12.0
6584,11.0,668239.0,0.3,39.0,low,high-low,12.0,rod_fixing,rod_fixing,1.0,139.0200000023469,1554475801154.0,1554475801015.0,BLIND,141.0,11.0 12.0
6585,11.0,668239.0,0.3,39.0,low,high-low,12.0,rod_fixing,rod_fixing,1.0,142.25000000442378,1554475801298.0,1554475801156.0,BLIND,318.0,11.0 12.0
7018,4.0,668239.0,0.1,39.0,low,high-low,22.0,rod_fixing,rod_fixing,1.0,124.94499999599066,1554475946091.0,1554475945966.0,BLIND,128.0,4.0 22.0
7019,4.0,668239.0,0.1,39.0,low,high-low,22.0,rod_fixing,rod_fixing,1.0,123.50500000326427,1554475946217.0,1554475946094.0,BLIND,126.0,4.0 22.0
7020,4.0,668239.0,0.1,39.0,low,high-low,22.0,rod_fixing,rod_fixing,1.0,126.104999995674,1554475946347.0,1554475946220.0,BLIND,133.0,4.0 22.0
7021,4.0,668239.0,0.1,39.0,low,high-low,22.0,rod_fixing,rod_fixing,1.0,118.705000000773,1554475946472.0,1554475946353.0,BLIND,121.0,4.0 22.0
7022,4.0,668239.0,0.1,39.0,low,high-low,22.0,rod_fixing,rod_fixing,1.0,117.14500000374392,1554475946592.0,1554475946474.0,BLIND,123.0,4.0 22.0
7023,4.0,668239.0,0.1,39.0,low,high-low,22.0,rod_fixing,rod_fixing,1.0,114.97999999846796,1554475946712.0,1554475946597.0,BLIND,252.0,4.0 22.0
7366,8.0,668239.0,0.7,39.0,low,high-low,22.0,rod_fixing,rod_fixing,1.0,126.32500000472645,1554475999078.0,1554475998951.0,BLIND,135.0,8.0 22.0
7367,8.0,668239.0,0.7,39.0,low,high-low,22.0,rod_fixing,rod_fixing,1.0,108.18499999737831,1554475999195.0,1554475999086.0,BLIND,112.0,8.0 22.0
7368,8.0,668239.0,0.7,39.0,low,high-low,22.0,rod_fixing,rod_fixing,1.0,126.82500000670551,1554475999325.0,1554475999198.0,BLIND,132.0,8.0 22.0
7369,8.0,668239.0,0.7,39.0,low,high-low,22.0,rod_fixing,rod_fixing,1.0,123.07000000146219,1554475999454.0,1554475999330.0,BLIND,126.0,8.0 22.0
7370,8.0,668239.0,0.7,39.0,low,high-low,22.0,rod_fixing,rod_fixing,1.0,122.66000000084749,1554475999579.0,1554475999456.0,BLIND,125.0,8.0 22.0
7371,8.0,668239.0,0.7,39.0,low,high-low,22.0,rod_fixing,rod_fixing,1.0,113.44000000087543,1554475999694.0,1554475999581.0,BLIND,236.0,8.0 22.0
7628,11.0,668239.0,1.2,39.0,low,high-low,22.0,rod_fixing,rod_fixing,1.0,129.0500000033062,1554476037627.0,1554476037497.0,BLIND,134.0,11.0 22.0
7629,11.0,668239.0,1.2,39.0,low,high-low,22.0,rod_fixing,rod_fixing,1.0,119.2349999982398,1554476037751.0,1554476037631.0,BLIND,123.0,11.0 22.0
7630,11.0,668239.0,1.2,39.0,low,high-low,22.0,rod_fixing,rod_fixing,1.0,133.95500000473112,1554476037888.0,1554476037754.0,BLIND,142.0,11.0 22.0
7631,11.0,668239.0,1.2,39.0,low,high-low,22.0,rod_fixing,rod_fixing,1.0,130.47499999799766,1554476038027.0,1554476037896.0,BLIND,133.0,11.0 22.0
7632,11.0,668239.0,1.2,39.0,low,high-low,22.0,rod_fixing,rod_fixing,1.0,118.12500000093132,1554476038148.0,1554476038029.0,BLIND,121.0,11.0 22.0
7633,11.0,668239.0,1.2,39.0,low,high-low,22.0,rod_fixing,rod_fixing,1.0,122.9349999994738,1554476038273.0,1554476038150.0,BLIND,253.0,11.0 22.0
147512,3.0,668240.0,0.3,39.0,low,low-high,11.0,rod_fixing,rod_fixing,1.0,163.0,1554475473160.0,1554475472996.0,BLIND,166.0,3.0 11.0
147513,3.0,668240.0,0.3,39.0,low,low-high,11.0,rod_fixing,rod_fixing,1.0,199.0,1554475473360.0,1554475473162.0,BLIND,201.0,3.0 11.0
147514,3.0,668240.0,0.3,39.0,low,low-high,11.0,rod_fixing,rod_fixing,1.0,124.0,1554475473487.0,1554475473363.0,BLIND,126.0,3.0 11.0
147515,3.0,668240.0,0.3,39.0,low,low-high,11.0,rod_fixing,rod_fixing,1.0,176.0,1554475473666.0,1554475473489.0,BLIND,180.0,3.0 11.0
147516,3.0,668240.0,0.3,39.0,low,low-high,11.0,rod_fixing,rod_fixing,1.0,171.0,1554475473839.0,1554475473669.0,BLIND,174.0,3.0 11.0
147517,3.0,668240.0,0.3,39.0,low,low-high,11.0,rod_fixing,rod_fixing,1.0,163.0,1554475474007.0,1554475473843.0,BLIND,167.0,3.0 11.0
147518,3.0,668240.0,0.3,39.0,low,low-high,11.0,rod_fixing,rod_fixing,1.0,169.0,1554475474178.0,1554475474010.0,BLIND,178.0,3.0 11.0
147826,7.0,668240.0,0.1,39.0,low,low-high,11.0,rod_fixing,rod_fixing,1.0,209.0,1554475525340.0,1554475525132.0,BLIND,213.0,7.0 11.0
147827,7.0,668240.0,0.1,39.0,low,low-high,11.0,rod_fixing,rod_fixing,1.0,163.0,1554475525510.0,1554475525345.0,BLIND,171.0,7.0 11.0
147828,7.0,668240.0,0.1,39.0,low,low-high,11.0,rod_fixing,rod_fixing,1.0,161.0,1554475525677.0,1554475525516.0,BLIND,166.0,7.0 11.0
147829,7.0,668240.0,0.1,39.0,low,low-high,11.0,rod_fixing,rod_fixing,1.0,153.0,1554475525835.0,1554475525682.0,BLIND,157.0,7.0 11.0
147830,7.0,668240.0,0.1,39.0,low,low-high,11.0,rod_fixing,rod_fixing,1.0,161.0,1554475526000.0,1554475525839.0,BLIND,168.0,7.0 11.0
147831,7.0,668240.0,0.1,39.0,low,low-high,11.0,rod_fixing,rod_fixing,1.0,166.0,1554475526173.0,1554475526007.0,BLIND,171.0,7.0 11.0
147832,7.0,668240.0,0.1,39.0,low,low-high,11.0,rod_fixing,rod_fixing,1.0,165.0,1554475526344.0,1554475526178.0,BLIND,191.0,7.0 11.0
148121,11.0,668240.0,1.8,39.0,low,low-high,11.0,rod_fixing,rod_fixing,1.0,175.0,1554475578011.0,1554475577836.0,BLIND,179.0,11.0 11.0
148122,11.0,668240.0,1.8,39.0,low,low-high,11.0,rod_fixing,rod_fixing,1.0,156.0,1554475578171.0,1554475578015.0,BLIND,159.0,11.0 11.0
148123,11.0,668240.0,1.8,39.0,low,low-high,11.0,rod_fixing,rod_fixing,1.0,196.0,1554475578369.0,1554475578174.0,BLIND,199.0,11.0 11.0
148124,11.0,668240.0,1.8,39.0,low,low-high,11.0,rod_fixing,rod_fixing,1.0,161.0,1554475578534.0,1554475578373.0,BLIND,165.0,11.0 11.0
148125,11.0,668240.0,1.8,39.0,low,low-high,11.0,rod_fixing,rod_fixing,1.0,189.0,1554475578727.0,1554475578538.0,BLIND,192.0,11.0 11.0
148126,11.0,668240.0,1.8,39.0,low,low-high,11.0,rod_fixing,rod_fixing,1.0,167.0,1554475578898.0,1554475578730.0,BLIND,172.0,11.0 11.0
148127,11.0,668240.0,1.8,39.0,low,low-high,11.0,rod_fixing,rod_fixing,1.0,174.0,1554475579076.0,1554475578902.0,BLIND,192.0,11.0 11.0
148509,4.0,668240.0,0.7,39.0,low,low-high,21.0,rod_fixing,rod_fixing,1.0,212.0,1554475752659.0,1554475752446.0,BLIND,217.0,4.0 21.0
148510,4.0,668240.0,0.7,39.0,low,low-high,21.0,rod_fixing,rod_fixing,1.0,126.0,1554475752790.0,1554475752663.0,BLIND,131.0,4.0 21.0
148511,4.0,668240.0,0.7,39.0,low,low-high,21.0,rod_fixing,rod_fixing,1.0,191.0,1554475752986.0,1554475752794.0,BLIND,200.0,4.0 21.0
148512,4.0,668240.0,0.7,39.0,low,low-high,21.0,rod_fixing,rod_fixing,1.0,144.0,1554475753140.0,1554475752994.0,BLIND,152.0,4.0 21.0
148513,4.0,668240.0,0.7,39.0,low,low-high,21.0,rod_fixing,rod_fixing,1.0,163.0,1554475753310.0,1554475753146.0,BLIND,170.0,4.0 21.0
148514,4.0,668240.0,0.7,39.0,low,low-high,21.0,rod_fixing,rod_fixing,1.0,166.0,1554475753482.0,1554475753316.0,BLIND,177.0,4.0 21.0
148515,4.0,668240.0,0.7,39.0,low,low-high,21.0,rod_fixing,rod_fixing,1.0,168.0,1554475753662.0,1554475753493.0,BLIND,192.0,4.0 21.0
148792,8.0,668240.0,1.2,39.0,low,low-high,21.0,rod_fixing,rod_fixing,1.0,159.0,1554475805098.0,1554475804938.0,BLIND,165.0,8.0 21.0
148793,8.0,668240.0,1.2,39.0,low,low-high,21.0,rod_fixing,rod_fixing,1.0,182.0,1554475805284.0,1554475805103.0,BLIND,191.0,8.0 21.0
148794,8.0,668240.0,1.2,39.0,low,low-high,21.0,rod_fixing,rod_fixing,1.0,148.0,1554475805443.0,1554475805294.0,BLIND,160.0,8.0 21.0
148795,8.0,668240.0,1.2,39.0,low,low-high,21.0,rod_fixing,rod_fixing,1.0,144.0,1554475805600.0,1554475805454.0,BLIND,150.0,8.0 21.0
148796,8.0,668240.0,1.2,39.0,low,low-high,21.0,rod_fixing,rod_fixing,1.0,166.0,1554475805773.0,1554475805604.0,BLIND,173.0,8.0 21.0
148797,8.0,668240.0,1.2,39.0,low,low-high,21.0,rod_fixing,rod_fixing,1.0,156.0,1554475805935.0,1554475805777.0,BLIND,163.0,8.0 21.0
148798,8.0,668240.0,1.2,39.0,low,low-high,21.0,rod_fixing,rod_fixing,1.0,182.0,1554475806122.0,1554475805940.0,BLIND,213.0,8.0 21.0
148990,11.0,668240.0,0.3,39.0,low,low-high,21.0,rod_fixing,rod_fixing,1.0,173.0,1554475844207.0,1554475844031.0,BLIND,182.0,11.0 21.0
148991,11.0,668240.0,0.3,39.0,low,low-high,21.0,rod_fixing,rod_fixing,1.0,163.0,1554475844377.0,1554475844213.0,BLIND,171.0,11.0 21.0
148992,11.0,668240.0,0.3,39.0,low,low-high,21.0,rod_fixing,rod_fixing,1.0,162.0,1554475844547.0,1554475844384.0,BLIND,167.0,11.0 21.0
148993,11.0,668240.0,0.3,39.0,low,low-high,21.0,rod_fixing,rod_fixing,1.0,162.0,1554475844714.0,1554475844551.0,BLIND,171.0,11.0 21.0
148994,11.0,668240.0,0.3,39.0,low,low-high,21.0,rod_fixing,rod_fixing,1.0,165.0,1554475844888.0,1554475844722.0,BLIND,171.0,11.0 21.0
148995,11.0,668240.0,0.3,39.0,low,low-high,21.0,rod_fixing,rod_fixing,1.0,167.0,1554475845061.0,1554475844893.0,BLIND,174.0,11.0 21.0
148996,11.0,668240.0,0.3,39.0,low,low-high,21.0,rod_fixing,rod_fixing,1.0,178.0,1554475845245.0,1554475845067.0,BLIND,208.0,11.0 21.0
149305,3.0,668240.0,0.3,39.0,high,high-low,12.0,rod_fixing,rod_fixing,1.0,175.0,1554476049004.0,1554476048828.0,BLIND,182.0,3.0 12.0
149306,3.0,668240.0,0.3,39.0,high,high-low,12.0,rod_fixing,rod_fixing,1.0,151.0,1554476049160.0,1554476049010.0,BLIND,163.0,3.0 12.0
149307,3.0,668240.0,0.3,39.0,high,high-low,12.0,rod_fixing,rod_fixing,1.0,139.0,1554476049314.0,1554476049173.0,BLIND,154.0,3.0 12.0
149308,3.0,668240.0,0.3,39.0,high,high-low,12.0,rod_fixing,rod_fixing,1.0,163.0,1554476049490.0,1554476049327.0,BLIND,177.0,3.0 12.0
149309,3.0,668240.0,0.3,39.0,high,high-low,12.0,rod_fixing,rod_fixing,1.0,137.0,1554476049642.0,1554476049504.0,BLIND,152.0,3.0 12.0
149310,3.0,668240.0,0.3,39.0,high,high-low,12.0,rod_fixing,rod_fixing,1.0,149.0,1554476049806.0,1554476049656.0,BLIND,157.0,3.0 12.0
149311,3.0,668240.0,0.3,39.0,high,high-low,12.0,rod_fixing,rod_fixing,1.0,160.0,1554476049974.0,1554476049813.0,BLIND,193.0,3.0 12.0
149625,7.0,668240.0,0.1,39.0,high,high-low,12.0,rod_fixing,rod_fixing,1.0,114.0,1554476101362.0,1554476101248.0,BLIND,129.0,7.0 12.0
149626,7.0,668240.0,0.1,39.0,high,high-low,12.0,rod_fixing,rod_fixing,1.0,220.0,1554476101597.0,1554476101377.0,BLIND,235.0,7.0 12.0
149627,7.0,668240.0,0.1,39.0,high,high-low,12.0,rod_fixing,rod_fixing,1.0,133.0,1554476101745.0,1554476101612.0,BLIND,140.0,7.0 12.0
149628,7.0,668240.0,0.1,39.0,high,high-low,12.0,rod_fixing,rod_fixing,1.0,160.0,1554476101913.0,1554476101752.0,BLIND,170.0,7.0 12.0
149629,7.0,668240.0,0.1,39.0,high,high-low,12.0,rod_fixing,rod_fixing,1.0,149.0,1554476102072.0,1554476101922.0,BLIND,160.0,7.0 12.0
149630,7.0,668240.0,0.1,39.0,high,high-low,12.0,rod_fixing,rod_fixing,1.0,168.0,1554476102251.0,1554476102082.0,BLIND,176.0,7.0 12.0
149631,7.0,668240.0,0.1,39.0,high,high-low,12.0,rod_fixing,rod_fixing,1.0,166.0,1554476102424.0,1554476102258.0,BLIND,220.0,7.0 12.0
149935,11.0,668240.0,1.8,39.0,high,high-low,12.0,rod_fixing,rod_fixing,1.0,165.0,1554476153883.0,1554476153718.0,BLIND,172.0,11.0 12.0
149936,11.0,668240.0,1.8,39.0,high,high-low,12.0,rod_fixing,rod_fixing,1.0,185.0,1554476154074.0,1554476153890.0,BLIND,200.0,11.0 12.0
149937,11.0,668240.0,1.8,39.0,high,high-low,12.0,rod_fixing,rod_fixing,1.0,161.0,1554476154253.0,1554476154090.0,BLIND,172.0,11.0 12.0
149938,11.0,668240.0,1.8,39.0,high,high-low,12.0,rod_fixing,rod_fixing,1.0,160.0,1554476154423.0,1554476154262.0,BLIND,170.0,11.0 12.0
149939,11.0,668240.0,1.8,39.0,high,high-low,12.0,rod_fixing,rod_fixing,1.0,186.0,1554476154619.0,1554476154432.0,BLIND,196.0,11.0 12.0
149940,11.0,668240.0,1.8,39.0,high,high-low,12.0,rod_fixing,rod_fixing,1.0,151.0,1554476154779.0,1554476154628.0,BLIND,159.0,11.0 12.0
149941,11.0,668240.0,1.8,39.0,high,high-low,12.0,rod_fixing,rod_fixing,1.0,181.0,1554476154969.0,1554476154787.0,BLIND,239.0,11.0 12.0
150648,8.0,668240.0,1.2,39.0,high,high-low,22.0,rod_fixing,rod_fixing,1.0,158.0,1554476365231.0,1554476365071.0,BLIND,181.0,8.0 22.0
150649,8.0,668240.0,1.2,39.0,high,high-low,22.0,rod_fixing,rod_fixing,1.0,133.0,1554476365387.0,1554476365252.0,BLIND,158.0,8.0 22.0
150650,8.0,668240.0,1.2,39.0,high,high-low,22.0,rod_fixing,rod_fixing,1.0,126.0,1554476365538.0,1554476365410.0,BLIND,148.0,8.0 22.0
150651,8.0,668240.0,1.2,39.0,high,high-low,22.0,rod_fixing,rod_fixing,1.0,175.0,1554476365734.0,1554476365558.0,BLIND,197.0,8.0 22.0
150652,8.0,668240.0,1.2,39.0,high,high-low,22.0,rod_fixing,rod_fixing,1.0,151.0,1554476365906.0,1554476365755.0,BLIND,161.0,8.0 22.0
150653,8.0,668240.0,1.2,39.0,high,high-low,22.0,rod_fixing,rod_fixing,1.0,164.0,1554476366080.0,1554476365916.0,BLIND,170.0,8.0 22.0
150654,8.0,668240.0,1.2,39.0,high,high-low,22.0,rod_fixing,rod_fixing,1.0,163.0,1554476366251.0,1554476366086.0,BLIND,202.0,8.0 22.0
150885,11.0,668240.0,0.3,39.0,high,high-low,22.0,rod_fixing,rod_fixing,1.0,172.0,1554476404678.0,1554476404506.0,BLIND,188.0,11.0 22.0
150886,11.0,668240.0,0.3,39.0,high,high-low,22.0,rod_fixing,rod_fixing,1.0,148.0,1554476404844.0,1554476404694.0,BLIND,170.0,11.0 22.0
150887,11.0,668240.0,0.3,39.0,high,high-low,22.0,rod_fixing,rod_fixing,1.0,150.0,1554476405015.0,1554476404864.0,BLIND,159.0,11.0 22.0
150888,11.0,668240.0,0.3,39.0,high,high-low,22.0,rod_fixing,rod_fixing,1.0,152.0,1554476405176.0,1554476405023.0,BLIND,162.0,11.0 22.0
150889,11.0,668240.0,0.3,39.0,high,high-low,22.0,rod_fixing,rod_fixing,1.0,151.0,1554476405336.0,1554476405185.0,BLIND,160.0,11.0 22.0
150890,11.0,668240.0,0.3,39.0,high,high-low,22.0,rod_fixing,rod_fixing,1.0,163.0,1554476405508.0,1554476405345.0,BLIND,185.0,11.0 22.0
150891,11.0,668240.0,0.3,39.0,high,high-low,22.0,rod_fixing,rod_fixing,1.0,147.0,1554476405678.0,1554476405530.0,BLIND,198.0,11.0 22.0
7981,3.0,668244.0,0.7,39.0,high,high-low,11.0,rod_fixing,rod_fixing,1.0,101.6450000461191,1554475690153.0,1554475690051.0,BLIND,104.0,3.0 11.0
7982,3.0,668244.0,0.7,39.0,high,high-low,11.0,rod_fixing,rod_fixing,1.0,117.76499985717236,1554475690273.0,1554475690155.0,BLIND,120.0,3.0 11.0
7983,3.0,668244.0,0.7,39.0,high,high-low,11.0,rod_fixing,rod_fixing,1.0,118.17500018514693,1554475690393.0,1554475690275.0,BLIND,120.0,3.0 11.0
7984,3.0,668244.0,0.7,39.0,high,high-low,11.0,rod_fixing,rod_fixing,1.0,206.26999996602532,1554475690601.0,1554475690395.0,BLIND,208.0,3.0 11.0
7985,3.0,668244.0,0.7,39.0,high,high-low,11.0,rod_fixing,rod_fixing,1.0,101.80000006221235,1554475690705.0,1554475690603.0,BLIND,103.0,3.0 11.0
7986,3.0,668244.0,0.7,39.0,high,high-low,11.0,rod_fixing,rod_fixing,1.0,110.45499984174968,1554475690817.0,1554475690706.0,BLIND,112.0,3.0 11.0
7987,3.0,668244.0,0.7,39.0,high,high-low,11.0,rod_fixing,rod_fixing,1.0,102.82999998889863,1554475690921.0,1554475690818.0,BLIND,109.0,3.0 11.0
8328,7.0,668244.0,2.5,39.0,high,high-low,11.0,rod_fixing,rod_fixing,1.0,365.98000000230974,1554475742521.0,1554475742154.0,BLIND,369.0,7.0 11.0
8329,7.0,668244.0,2.5,39.0,high,high-low,11.0,rod_fixing,rod_fixing,1.0,101.4649998396635,1554475742625.0,1554475742523.0,BLIND,103.0,7.0 11.0
8330,7.0,668244.0,2.5,39.0,high,high-low,11.0,rod_fixing,rod_fixing,1.0,110.7149999588728,1554475742737.0,1554475742626.0,BLIND,112.0,7.0 11.0
8331,7.0,668244.0,2.5,39.0,high,high-low,11.0,rod_fixing,rod_fixing,1.0,102.56500006653368,1554475742840.0,1554475742738.0,BLIND,104.0,7.0 11.0
8332,7.0,668244.0,2.5,39.0,high,high-low,11.0,rod_fixing,rod_fixing,1.0,94.7300000116229,1554475742936.0,1554475742842.0,BLIND,96.0,7.0 11.0
8333,7.0,668244.0,2.5,39.0,high,high-low,11.0,rod_fixing,rod_fixing,1.0,110.15999992378056,1554475743048.0,1554475742938.0,BLIND,220.0,7.0 11.0
8637,11.0,668244.0,0.7,39.0,high,high-low,11.0,rod_fixing,rod_fixing,1.0,94.34500010684131,1554475794880.0,1554475794785.0,BLIND,97.0,11.0 11.0
8638,11.0,668244.0,0.7,39.0,high,high-low,11.0,rod_fixing,rod_fixing,1.0,116.95499997586012,1554475795000.0,1554475794882.0,BLIND,120.0,11.0 11.0
8639,11.0,668244.0,0.7,39.0,high,high-low,11.0,rod_fixing,rod_fixing,1.0,101.65999992750584,1554475795104.0,1554475795002.0,BLIND,104.0,11.0 11.0
8640,11.0,668244.0,0.7,39.0,high,high-low,11.0,rod_fixing,rod_fixing,1.0,109.31999981403351,1554475795216.0,1554475795106.0,BLIND,112.0,11.0 11.0
8641,11.0,668244.0,0.7,39.0,high,high-low,11.0,rod_fixing,rod_fixing,1.0,109.70999998971821,1554475795328.0,1554475795218.0,BLIND,112.0,11.0 11.0
8642,11.0,668244.0,0.7,39.0,high,high-low,11.0,rod_fixing,rod_fixing,1.0,109.44999987259509,1554475795439.0,1554475795330.0,BLIND,228.0,11.0 11.0
8989,4.0,668244.0,0.7,39.0,high,high-low,21.0,rod_fixing,rod_fixing,1.0,245.54999987594783,1554475993047.0,1554475992801.0,BLIND,248.0,4.0 21.0
8990,4.0,668244.0,0.7,39.0,high,high-low,21.0,rod_fixing,rod_fixing,1.0,109.41000003367662,1554475993159.0,1554475993049.0,BLIND,113.0,4.0 21.0
8991,4.0,668244.0,0.7,39.0,high,high-low,21.0,rod_fixing,rod_fixing,1.0,116.89499998465179,1554475993279.0,1554475993162.0,BLIND,119.0,4.0 21.0
8992,4.0,668244.0,0.7,39.0,high,high-low,21.0,rod_fixing,rod_fixing,1.0,125.46499981544912,1554475993407.0,1554475993281.0,BLIND,128.0,4.0 21.0
8993,4.0,668244.0,0.7,39.0,high,high-low,21.0,rod_fixing,rod_fixing,1.0,245.51500007510185,1554475993655.0,1554475993409.0,BLIND,248.0,4.0 21.0
8994,4.0,668244.0,0.7,39.0,high,high-low,21.0,rod_fixing,rod_fixing,1.0,165.01499991863966,1554475993823.0,1554475993657.0,BLIND,168.0,4.0 21.0
8995,4.0,668244.0,0.7,39.0,high,high-low,21.0,rod_fixing,rod_fixing,1.0,204.95500019751492,1554475994031.0,1554475993825.0,BLIND,219.0,4.0 21.0
9272,8.0,668244.0,0.1,39.0,high,high-low,21.0,rod_fixing,rod_fixing,1.0,221.5799998957664,1554476044023.0,1554476043801.0,BLIND,224.0,8.0 21.0
9273,8.0,668244.0,0.1,39.0,high,high-low,21.0,rod_fixing,rod_fixing,1.0,85.54999995976685,1554476044111.0,1554476044025.0,BLIND,88.0,8.0 21.0
9274,8.0,668244.0,0.1,39.0,high,high-low,21.0,rod_fixing,rod_fixing,1.0,110.09499989449978,1554476044223.0,1554476044113.0,BLIND,112.0,8.0 21.0
9275,8.0,668244.0,0.1,39.0,high,high-low,21.0,rod_fixing,rod_fixing,1.0,101.77999990992248,1554476044327.0,1554476044225.0,BLIND,104.0,8.0 21.0
9276,8.0,668244.0,0.1,39.0,high,high-low,21.0,rod_fixing,rod_fixing,1.0,102.03999979421495,1554476044431.0,1554476044329.0,BLIND,104.0,8.0 21.0
9277,8.0,668244.0,0.1,39.0,high,high-low,21.0,rod_fixing,rod_fixing,1.0,69.92499995976685,1554476044503.0,1554476044433.0,BLIND,167.0,8.0 21.0
9509,11.0,668244.0,0.7,39.0,high,high-low,21.0,rod_fixing,rod_fixing,1.0,485.0950001273304,1554476083431.0,1554476082945.0,BLIND,488.0,11.0 21.0
9510,11.0,668244.0,0.7,39.0,high,high-low,21.0,rod_fixing,rod_fixing,1.0,148.73500005342066,1554476083582.0,1554476083433.0,BLIND,151.0,11.0 21.0
9511,11.0,668244.0,0.7,39.0,high,high-low,21.0,rod_fixing,rod_fixing,1.0,102.174999890849,1554476083686.0,1554476083584.0,BLIND,104.0,11.0 21.0
9512,11.0,668244.0,0.7,39.0,high,high-low,21.0,rod_fixing,rod_fixing,1.0,141.88500004820523,1554476083830.0,1554476083688.0,BLIND,144.0,11.0 21.0
9513,11.0,668244.0,0.7,39.0,high,high-low,21.0,rod_fixing,rod_fixing,1.0,110.1699999999255,1554476083943.0,1554476083832.0,BLIND,113.0,11.0 21.0
9514,11.0,668244.0,0.7,39.0,high,high-low,21.0,rod_fixing,rod_fixing,1.0,140.70000010542572,1554476084086.0,1554476083945.0,BLIND,144.0,11.0 21.0
9515,11.0,668244.0,0.7,39.0,high,high-low,21.0,rod_fixing,rod_fixing,1.0,149.2149999830872,1554476084238.0,1554476084089.0,BLIND,160.0,11.0 21.0
9797,3.0,668244.0,0.7,39.0,low,high-low,12.0,rod_fixing,rod_fixing,1.0,164.28999998606741,1554476590517.0,1554476590352.0,BLIND,168.0,3.0 12.0
9798,3.0,668244.0,0.7,39.0,low,high-low,12.0,rod_fixing,rod_fixing,1.0,141.03500009514391,1554476590661.0,1554476590520.0,BLIND,144.0,3.0 12.0
9799,3.0,668244.0,0.7,39.0,low,high-low,12.0,rod_fixing,rod_fixing,1.0,156.71999985352159,1554476590821.0,1554476590664.0,BLIND,160.0,3.0 12.0
9800,3.0,668244.0,0.7,39.0,low,high-low,12.0,rod_fixing,rod_fixing,1.0,117.70499986596407,1554476590942.0,1554476590824.0,BLIND,120.0,3.0 12.0
9801,3.0,668244.0,0.7,39.0,low,high-low,12.0,rod_fixing,rod_fixing,1.0,140.2900000102818,1554476591085.0,1554476590944.0,BLIND,143.0,3.0 12.0
9802,3.0,668244.0,0.7,39.0,low,high-low,12.0,rod_fixing,rod_fixing,1.0,141.30500005558133,1554476591229.0,1554476591087.0,BLIND,145.0,3.0 12.0
9803,3.0,668244.0,0.7,39.0,low,high-low,12.0,rod_fixing,rod_fixing,1.0,252.6699998416006,1554476591485.0,1554476591232.0,BLIND,265.0,3.0 12.0
10076,7.0,668244.0,2.5,39.0,low,high-low,12.0,rod_fixing,rod_fixing,1.0,172.78000013902786,1554476642868.0,1554476642695.0,BLIND,177.0,7.0 12.0
10077,7.0,668244.0,2.5,39.0,low,high-low,12.0,rod_fixing,rod_fixing,1.0,284.53999990597373,1554476643156.0,1554476642872.0,BLIND,288.0,7.0 12.0
10078,7.0,668244.0,2.5,39.0,low,high-low,12.0,rod_fixing,rod_fixing,1.0,155.70000000298026,1554476643316.0,1554476643160.0,BLIND,159.0,7.0 12.0
10079,7.0,668244.0,2.5,39.0,low,high-low,12.0,rod_fixing,rod_fixing,1.0,269.73499986343086,1554476643589.0,1554476643319.0,BLIND,272.0,7.0 12.0
10080,7.0,668244.0,2.5,39.0,low,high-low,12.0,rod_fixing,rod_fixing,1.0,165.4699998907745,1554476643757.0,1554476643591.0,BLIND,169.0,7.0 12.0
10081,7.0,668244.0,2.5,39.0,low,high-low,12.0,rod_fixing,rod_fixing,1.0,196.80500007234517,1554476643957.0,1554476643760.0,BLIND,199.0,7.0 12.0
10082,7.0,668244.0,2.5,39.0,low,high-low,12.0,rod_fixing,rod_fixing,1.0,285.56999983266,1554476644245.0,1554476643959.0,BLIND,297.0,7.0 12.0
10378,11.0,668244.0,0.7,39.0,low,high-low,12.0,rod_fixing,rod_fixing,1.0,156.71999985352159,1554476695373.0,1554476695216.0,BLIND,160.0,11.0 12.0
10379,11.0,668244.0,0.7,39.0,low,high-low,12.0,rod_fixing,rod_fixing,1.0,124.8749999795109,1554476695501.0,1554476695376.0,BLIND,128.0,11.0 12.0
10380,11.0,668244.0,0.7,39.0,low,high-low,12.0,rod_fixing,rod_fixing,1.0,148.78499996848404,1554476695653.0,1554476695504.0,BLIND,153.0,11.0 12.0
10381,11.0,668244.0,0.7,39.0,low,high-low,12.0,rod_fixing,rod_fixing,1.0,124.04999998398122,1554476695781.0,1554476695657.0,BLIND,127.0,11.0 12.0
10382,11.0,668244.0,0.7,39.0,low,high-low,12.0,rod_fixing,rod_fixing,1.0,140.59500000439584,1554476695925.0,1554476695784.0,BLIND,144.0,11.0 12.0
10383,11.0,668244.0,0.7,39.0,low,high-low,12.0,rod_fixing,rod_fixing,1.0,124.55000006593764,1554476696053.0,1554476695928.0,BLIND,128.0,11.0 12.0
10384,11.0,668244.0,0.7,39.0,low,high-low,12.0,rod_fixing,rod_fixing,1.0,212.1549998410046,1554476696269.0,1554476696056.0,BLIND,225.0,11.0 12.0
10745,4.0,668244.0,0.7,39.0,low,high-low,22.0,rod_fixing,rod_fixing,1.0,156.48499992676082,1554476969789.0,1554476969632.0,BLIND,159.0,4.0 22.0
10746,4.0,668244.0,0.7,39.0,low,high-low,22.0,rod_fixing,rod_fixing,1.0,116.96500005200504,1554476969909.0,1554476969791.0,BLIND,120.0,4.0 22.0
10747,4.0,668244.0,0.7,39.0,low,high-low,22.0,rod_fixing,rod_fixing,1.0,189.78999997489154,1554476970101.0,1554476969911.0,BLIND,193.0,4.0 22.0
10748,4.0,668244.0,0.7,39.0,low,high-low,22.0,rod_fixing,rod_fixing,1.0,76.12000009976327,1554476970181.0,1554476970104.0,BLIND,79.0,4.0 22.0
10749,4.0,668244.0,0.7,39.0,low,high-low,22.0,rod_fixing,rod_fixing,1.0,117.2850001603365,1554476970301.0,1554476970183.0,BLIND,120.0,4.0 22.0
10750,4.0,668244.0,0.7,39.0,low,high-low,22.0,rod_fixing,rod_fixing,1.0,85.13500005938113,1554476970388.0,1554476970303.0,BLIND,89.0,4.0 22.0
10751,4.0,668244.0,0.7,39.0,low,high-low,22.0,rod_fixing,rod_fixing,1.0,372.74000002071267,1554476970765.0,1554476970392.0,BLIND,387.0,4.0 22.0
11095,8.0,668244.0,0.1,39.0,low,high-low,22.0,rod_fixing,rod_fixing,1.0,133.0150000285357,1554477021388.0,1554477021255.0,BLIND,137.0,8.0 22.0
11096,8.0,668244.0,0.1,39.0,low,high-low,22.0,rod_fixing,rod_fixing,1.0,219.97999981977048,1554477021612.0,1554477021392.0,BLIND,873.0,8.0 22.0
11317,11.0,668244.0,0.7,39.0,low,high-low,22.0,rod_fixing,rod_fixing,1.0,229.30500004440543,1554477060781.0,1554477060551.0,BLIND,233.0,11.0 22.0
11318,11.0,668244.0,0.7,39.0,low,high-low,22.0,rod_fixing,rod_fixing,1.0,115.48999999649824,1554477060900.0,1554477060784.0,BLIND,121.0,11.0 22.0
11319,11.0,668244.0,0.7,39.0,low,high-low,22.0,rod_fixing,rod_fixing,1.0,106.55000014230608,1554477061012.0,1554477060905.0,BLIND,111.0,11.0 22.0
11320,11.0,668244.0,0.7,39.0,low,high-low,22.0,rod_fixing,rod_fixing,1.0,116.22500000521539,1554477061132.0,1554477061016.0,BLIND,119.0,11.0 22.0
11321,11.0,668244.0,0.7,39.0,low,high-low,22.0,rod_fixing,rod_fixing,1.0,109.11999992094934,1554477061244.0,1554477061135.0,BLIND,112.0,11.0 22.0
11322,11.0,668244.0,0.7,39.0,low,high-low,22.0,rod_fixing,rod_fixing,1.0,116.96500005200504,1554477061364.0,1554477061247.0,BLIND,121.0,11.0 22.0
11323,11.0,668244.0,0.7,39.0,low,high-low,22.0,rod_fixing,rod_fixing,1.0,163.79999998025596,1554477061532.0,1554477061368.0,BLIND,179.0,11.0 22.0
151199,3.0,668245.0,0.1,39.0,low,low-high,11.0,rod_fixing,rod_fixing,1.0,235.14499999998955,1554475551077.0,1554475550840.0,BLIND,242.0,3.0 11.0
151200,3.0,668245.0,0.1,39.0,low,low-high,11.0,rod_fixing,rod_fixing,1.0,170.25000000000728,1554475551253.0,1554475551082.0,BLIND,175.0,3.0 11.0
151201,3.0,668245.0,0.1,39.0,low,low-high,11.0,rod_fixing,rod_fixing,1.0,191.68500000000492,1554475551450.0,1554475551257.0,BLIND,197.0,3.0 11.0
151202,3.0,668245.0,0.1,39.0,low,low-high,11.0,rod_fixing,rod_fixing,1.0,192.04500000000556,1554475551647.0,1554475551454.0,BLIND,197.0,3.0 11.0
151203,3.0,668245.0,0.1,39.0,low,low-high,11.0,rod_fixing,rod_fixing,1.0,217.36499999996886,1554475551869.0,1554475551651.0,BLIND,222.0,3.0 11.0
151204,3.0,668245.0,0.1,39.0,low,low-high,11.0,rod_fixing,rod_fixing,1.0,209.9850000000733,1554475552084.0,1554475551873.0,BLIND,215.0,3.0 11.0
151205,3.0,668245.0,0.1,39.0,low,low-high,11.0,rod_fixing,rod_fixing,1.0,205.0049999999173,1554475552294.0,1554475552088.0,BLIND,220.0,3.0 11.0
151496,7.0,668245.0,0.7,39.0,low,low-high,11.0,rod_fixing,rod_fixing,1.0,202.76999999998955,1554475603217.0,1554475603014.0,BLIND,208.0,7.0 11.0
151497,7.0,668245.0,0.7,39.0,low,low-high,11.0,rod_fixing,rod_fixing,1.0,179.0399999999936,1554475603402.0,1554475603222.0,BLIND,184.0,7.0 11.0
151498,7.0,668245.0,0.7,39.0,low,low-high,11.0,rod_fixing,rod_fixing,1.0,183.05500000008038,1554475603590.0,1554475603406.0,BLIND,188.0,7.0 11.0
151499,7.0,668245.0,0.7,39.0,low,low-high,11.0,rod_fixing,rod_fixing,1.0,195.8450000000739,1554475603791.0,1554475603594.0,BLIND,200.0,7.0 11.0
151500,7.0,668245.0,0.7,39.0,low,low-high,11.0,rod_fixing,rod_fixing,1.0,188.94000000000236,1554475603984.0,1554475603794.0,BLIND,195.0,7.0 11.0
151501,7.0,668245.0,0.7,39.0,low,low-high,11.0,rod_fixing,rod_fixing,1.0,186.32500000001164,1554475604176.0,1554475603989.0,BLIND,193.0,7.0 11.0
151502,7.0,668245.0,0.7,39.0,low,low-high,11.0,rod_fixing,rod_fixing,1.0,179.30500000000757,1554475604362.0,1554475604182.0,BLIND,194.0,7.0 11.0
151806,11.0,668245.0,0.1,39.0,low,low-high,11.0,rod_fixing,rod_fixing,1.0,174.31499999997322,1554475655607.0,1554475655432.0,BLIND,180.0,11.0 11.0
151807,11.0,668245.0,0.1,39.0,low,low-high,11.0,rod_fixing,rod_fixing,1.0,175.37000000002445,1554475655788.0,1554475655612.0,BLIND,181.0,11.0 11.0
151808,11.0,668245.0,0.1,39.0,low,low-high,11.0,rod_fixing,rod_fixing,1.0,180.990000000078,1554475655974.0,1554475655793.0,BLIND,187.0,11.0 11.0
151809,11.0,668245.0,0.1,39.0,low,low-high,11.0,rod_fixing,rod_fixing,1.0,174.09499999994296,1554475656155.0,1554475655980.0,BLIND,180.0,11.0 11.0
151810,11.0,668245.0,0.1,39.0,low,low-high,11.0,rod_fixing,rod_fixing,1.0,182.41500000000812,1554475656343.0,1554475656160.0,BLIND,188.0,11.0 11.0
151811,11.0,668245.0,0.1,39.0,low,low-high,11.0,rod_fixing,rod_fixing,1.0,195.7399999999907,1554475656544.0,1554475656348.0,BLIND,201.0,11.0 11.0
151812,11.0,668245.0,0.1,39.0,low,low-high,11.0,rod_fixing,rod_fixing,1.0,178.7600000000093,1554475656728.0,1554475656549.0,BLIND,196.0,11.0 11.0
152197,4.0,668245.0,0.3,39.0,low,low-high,21.0,rod_fixing,rod_fixing,1.0,205.80999999993944,1554475733694.0,1554475733488.0,BLIND,209.0,4.0 21.0
152198,4.0,668245.0,0.3,39.0,low,low-high,21.0,rod_fixing,rod_fixing,1.0,173.28499999994528,1554475733871.0,1554475733697.0,BLIND,177.0,4.0 21.0
152199,4.0,668245.0,0.3,39.0,low,low-high,21.0,rod_fixing,rod_fixing,1.0,178.42000000007098,1554475734053.0,1554475733874.0,BLIND,183.0,4.0 21.0
152200,4.0,668245.0,0.3,39.0,low,low-high,21.0,rod_fixing,rod_fixing,1.0,187.14499999998955,1554475734245.0,1554475734057.0,BLIND,192.0,4.0 21.0
152201,4.0,668245.0,0.3,39.0,low,low-high,21.0,rod_fixing,rod_fixing,1.0,181.9450000000361,1554475734432.0,1554475734249.0,BLIND,575.0,4.0 21.0
152498,8.0,668245.0,0.3,39.0,low,low-high,21.0,rod_fixing,rod_fixing,1.0,187.45500000001633,1554475786449.0,1554475786261.0,BLIND,193.0,8.0 21.0
152499,8.0,668245.0,0.3,39.0,low,low-high,21.0,rod_fixing,rod_fixing,1.0,158.75500000006286,1554475786614.0,1554475786454.0,BLIND,165.0,8.0 21.0
152500,8.0,668245.0,0.3,39.0,low,low-high,21.0,rod_fixing,rod_fixing,1.0,160.0449999999837,1554475786780.0,1554475786619.0,BLIND,166.0,8.0 21.0
152501,8.0,668245.0,0.3,39.0,low,low-high,21.0,rod_fixing,rod_fixing,1.0,160.9700000000303,1554475786947.0,1554475786785.0,BLIND,167.0,8.0 21.0
152502,8.0,668245.0,0.3,39.0,low,low-high,21.0,rod_fixing,rod_fixing,1.0,174.56500000000233,1554475787128.0,1554475786952.0,BLIND,181.0,8.0 21.0
152503,8.0,668245.0,0.3,39.0,low,low-high,21.0,rod_fixing,rod_fixing,1.0,181.5950000000303,1554475787316.0,1554475787133.0,BLIND,188.0,8.0 21.0
152504,8.0,668245.0,0.3,39.0,low,low-high,21.0,rod_fixing,rod_fixing,1.0,170.8999999999651,1554475787493.0,1554475787321.0,BLIND,188.0,8.0 21.0
152711,11.0,668245.0,0.1,39.0,low,low-high,21.0,rod_fixing,rod_fixing,1.0,195.0799999999581,1554475826502.0,1554475826306.0,BLIND,201.0,11.0 21.0
152712,11.0,668245.0,0.1,39.0,low,low-high,21.0,rod_fixing,rod_fixing,1.0,197.8649999999907,1554475826706.0,1554475826507.0,BLIND,204.0,11.0 21.0
152713,11.0,668245.0,0.1,39.0,low,low-high,21.0,rod_fixing,rod_fixing,1.0,182.73499999998603,1554475826894.0,1554475826711.0,BLIND,188.0,11.0 21.0
152714,11.0,668245.0,0.1,39.0,low,low-high,21.0,rod_fixing,rod_fixing,1.0,175.60999999998603,1554475827075.0,1554475826899.0,BLIND,182.0,11.0 21.0
152715,11.0,668245.0,0.1,39.0,low,low-high,21.0,rod_fixing,rod_fixing,1.0,190.1050000000396,1554475827272.0,1554475827081.0,BLIND,196.0,11.0 21.0
152716,11.0,668245.0,0.1,39.0,low,low-high,21.0,rod_fixing,rod_fixing,1.0,201.09999999997672,1554475827478.0,1554475827277.0,BLIND,207.0,11.0 21.0
152717,11.0,668245.0,0.1,39.0,low,low-high,21.0,rod_fixing,rod_fixing,1.0,176.18499999993946,1554475827661.0,1554475827484.0,BLIND,195.0,11.0 21.0
153026,3.0,668245.0,0.1,39.0,high,high-low,12.0,rod_fixing,rod_fixing,1.0,145.70000000006985,1554475920207.0,1554475920061.0,BLIND,153.0,3.0 12.0
153027,3.0,668245.0,0.1,39.0,high,high-low,12.0,rod_fixing,rod_fixing,1.0,133.7149999999674,1554475920348.0,1554475920214.0,BLIND,141.0,3.0 12.0
153028,3.0,668245.0,0.1,39.0,high,high-low,12.0,rod_fixing,rod_fixing,1.0,130.19999999995343,1554475920486.0,1554475920355.0,BLIND,138.0,3.0 12.0
153029,3.0,668245.0,0.1,39.0,high,high-low,12.0,rod_fixing,rod_fixing,1.0,151.6149999999907,1554475920645.0,1554475920493.0,BLIND,159.0,3.0 12.0
153030,3.0,668245.0,0.1,39.0,high,high-low,12.0,rod_fixing,rod_fixing,1.0,150.03000000002794,1554475920803.0,1554475920652.0,BLIND,157.0,3.0 12.0
153031,3.0,668245.0,0.1,39.0,high,high-low,12.0,rod_fixing,rod_fixing,1.0,137.12999999994645,1554475920947.0,1554475920809.0,BLIND,145.0,3.0 12.0
153032,3.0,668245.0,0.1,39.0,high,high-low,12.0,rod_fixing,rod_fixing,1.0,365.07499999995343,1554475921320.0,1554475920954.0,BLIND,390.0,3.0 12.0
153338,7.0,668245.0,0.7,39.0,high,high-low,12.0,rod_fixing,rod_fixing,1.0,156.8250000000116,1554475972212.0,1554475972055.0,BLIND,163.0,7.0 12.0
153339,7.0,668245.0,0.7,39.0,high,high-low,12.0,rod_fixing,rod_fixing,1.0,153.09000000002558,1554475972372.0,1554475972218.0,BLIND,159.0,7.0 12.0
153340,7.0,668245.0,0.7,39.0,high,high-low,12.0,rod_fixing,rod_fixing,1.0,164.5999999998603,1554475972542.0,1554475972377.0,BLIND,172.0,7.0 12.0
153341,7.0,668245.0,0.7,39.0,high,high-low,12.0,rod_fixing,rod_fixing,1.0,179.50500000006286,1554475972730.0,1554475972549.0,BLIND,187.0,7.0 12.0
153342,7.0,668245.0,0.7,39.0,high,high-low,12.0,rod_fixing,rod_fixing,1.0,174.06499999994412,1554475972910.0,1554475972736.0,BLIND,182.0,7.0 12.0
153343,7.0,668245.0,0.7,39.0,high,high-low,12.0,rod_fixing,rod_fixing,1.0,163.12500000005818,1554475973082.0,1554475972918.0,BLIND,171.0,7.0 12.0
153344,7.0,668245.0,0.7,39.0,high,high-low,12.0,rod_fixing,rod_fixing,1.0,352.09499999997206,1554475973442.0,1554475973089.0,BLIND,375.0,7.0 12.0
153633,11.0,668245.0,0.1,39.0,high,high-low,12.0,rod_fixing,rod_fixing,1.0,228.9000000001397,1554476024437.0,1554476024207.0,BLIND,238.0,11.0 12.0
153634,11.0,668245.0,0.1,39.0,high,high-low,12.0,rod_fixing,rod_fixing,1.0,171.0450000000419,1554476024616.0,1554476024445.0,BLIND,179.0,11.0 12.0
153635,11.0,668245.0,0.1,39.0,high,high-low,12.0,rod_fixing,rod_fixing,1.0,224.79999999993012,1554476024850.0,1554476024624.0,BLIND,232.0,11.0 12.0
153636,11.0,668245.0,0.1,39.0,high,high-low,12.0,rod_fixing,rod_fixing,1.0,193.3349999998464,1554476025050.0,1554476024856.0,BLIND,201.0,11.0 12.0
153637,11.0,668245.0,0.1,39.0,high,high-low,12.0,rod_fixing,rod_fixing,1.0,188.92499999993012,1554476025246.0,1554476025057.0,BLIND,197.0,11.0 12.0
153638,11.0,668245.0,0.1,39.0,high,high-low,12.0,rod_fixing,rod_fixing,1.0,227.91499999992084,1554476025482.0,1554476025254.0,BLIND,444.0,11.0 12.0
154028,4.0,668245.0,0.3,39.0,high,high-low,22.0,rod_fixing,rod_fixing,1.0,170.34000000020026,1554476125220.0,1554476125049.0,BLIND,180.0,4.0 22.0
154029,4.0,668245.0,0.3,39.0,high,high-low,22.0,rod_fixing,rod_fixing,1.0,147.8199999998324,1554476125377.0,1554476125229.0,BLIND,156.0,4.0 22.0
154030,4.0,668245.0,0.3,39.0,high,high-low,22.0,rod_fixing,rod_fixing,1.0,163.410000000149,1554476125549.0,1554476125385.0,BLIND,171.0,4.0 22.0
154031,4.0,668245.0,0.3,39.0,high,high-low,22.0,rod_fixing,rod_fixing,1.0,172.77500000002328,1554476125730.0,1554476125556.0,BLIND,181.0,4.0 22.0
154032,4.0,668245.0,0.3,39.0,high,high-low,22.0,rod_fixing,rod_fixing,1.0,178.50500000012107,1554476125916.0,1554476125737.0,BLIND,187.0,4.0 22.0
154033,4.0,668245.0,0.3,39.0,high,high-low,22.0,rod_fixing,rod_fixing,1.0,173.61999999999534,1554476126099.0,1554476125924.0,BLIND,184.0,4.0 22.0
154034,4.0,668245.0,0.3,39.0,high,high-low,22.0,rod_fixing,rod_fixing,1.0,171.1150000001071,1554476126280.0,1554476126108.0,BLIND,198.0,4.0 22.0
154328,8.0,668245.0,0.3,39.0,high,high-low,22.0,rod_fixing,rod_fixing,1.0,179.59999999997672,1554476176859.0,1554476176678.0,BLIND,190.0,8.0 22.0
154329,8.0,668245.0,0.3,39.0,high,high-low,22.0,rod_fixing,rod_fixing,1.0,156.39500000001863,1554476177025.0,1554476176868.0,BLIND,166.0,8.0 22.0
154330,8.0,668245.0,0.3,39.0,high,high-low,22.0,rod_fixing,rod_fixing,1.0,151.43999999982768,1554476177186.0,1554476177034.0,BLIND,161.0,8.0 22.0
154331,8.0,668245.0,0.3,39.0,high,high-low,22.0,rod_fixing,rod_fixing,1.0,160.67500000004657,1554476177356.0,1554476177195.0,BLIND,170.0,8.0 22.0
154332,8.0,668245.0,0.3,39.0,high,high-low,22.0,rod_fixing,rod_fixing,1.0,167.8199999998324,1554476177533.0,1554476177365.0,BLIND,178.0,8.0 22.0
154333,8.0,668245.0,0.3,39.0,high,high-low,22.0,rod_fixing,rod_fixing,1.0,177.8299999998417,1554476177721.0,1554476177543.0,BLIND,185.0,8.0 22.0
154334,8.0,668245.0,0.3,39.0,high,high-low,22.0,rod_fixing,rod_fixing,1.0,182.6699999999255,1554476177911.0,1554476177728.0,BLIND,209.0,8.0 22.0
154558,11.0,668245.0,0.1,39.0,high,high-low,22.0,rod_fixing,rod_fixing,1.0,179.33500000007916,1554476216726.0,1554476216546.0,BLIND,189.0,11.0 22.0
154559,11.0,668245.0,0.1,39.0,high,high-low,22.0,rod_fixing,rod_fixing,1.0,165.60499999998137,1554476216902.0,1554476216735.0,BLIND,176.0,11.0 22.0
154560,11.0,668245.0,0.1,39.0,high,high-low,22.0,rod_fixing,rod_fixing,1.0,175.6350000000093,1554476217088.0,1554476216911.0,BLIND,185.0,11.0 22.0
154561,11.0,668245.0,0.1,39.0,high,high-low,22.0,rod_fixing,rod_fixing,1.0,204.53499999979977,1554476217301.0,1554476217096.0,BLIND,212.0,11.0 22.0
154562,11.0,668245.0,0.1,39.0,high,high-low,22.0,rod_fixing,rod_fixing,1.0,169.214999999851,1554476217478.0,1554476217308.0,BLIND,586.0,11.0 22.0
11675,3.0,668246.0,2.5,39.0,high,high-low,11.0,rod_fixing,rod_fixing,1.0,128.1250000174623,1554475572903.0,1554475572774.0,BLIND,132.0,3.0 11.0
11676,3.0,668246.0,2.5,39.0,high,high-low,11.0,rod_fixing,rod_fixing,1.0,132.55999999819323,1554475573039.0,1554475572906.0,BLIND,135.0,3.0 11.0
11677,3.0,668246.0,2.5,39.0,high,high-low,11.0,rod_fixing,rod_fixing,1.0,141.14500000141558,1554475573183.0,1554475573041.0,BLIND,144.0,3.0 11.0
11678,3.0,668246.0,2.5,39.0,high,high-low,11.0,rod_fixing,rod_fixing,1.0,141.01500000106168,1554475573327.0,1554475573185.0,BLIND,145.0,3.0 11.0
11679,3.0,668246.0,2.5,39.0,high,high-low,11.0,rod_fixing,rod_fixing,1.0,140.28000002144836,1554475573471.0,1554475573330.0,BLIND,143.0,3.0 11.0
11680,3.0,668246.0,2.5,39.0,high,high-low,11.0,rod_fixing,rod_fixing,1.0,133.15000000875443,1554475573607.0,1554475573473.0,BLIND,136.0,3.0 11.0
11681,3.0,668246.0,2.5,39.0,high,high-low,11.0,rod_fixing,rod_fixing,1.0,140.5899999954272,1554475573751.0,1554475573609.0,BLIND,155.0,3.0 11.0
12016,7.0,668246.0,1.2,39.0,high,high-low,11.0,rod_fixing,rod_fixing,1.0,145.98000000114553,1554475624838.0,1554475624690.0,BLIND,150.0,7.0 11.0
12017,7.0,668246.0,1.2,39.0,high,high-low,11.0,rod_fixing,rod_fixing,1.0,141.28499999060298,1554475624982.0,1554475624840.0,BLIND,144.0,7.0 11.0
12018,7.0,668246.0,1.2,39.0,high,high-low,11.0,rod_fixing,rod_fixing,1.0,149.23999999882653,1554475625134.0,1554475624984.0,BLIND,152.0,7.0 11.0
12019,7.0,668246.0,1.2,39.0,high,high-low,11.0,rod_fixing,rod_fixing,1.0,132.76500001666136,1554475625269.0,1554475625136.0,BLIND,136.0,7.0 11.0
12020,7.0,668246.0,1.2,39.0,high,high-low,11.0,rod_fixing,rod_fixing,1.0,132.94500001939014,1554475625406.0,1554475625272.0,BLIND,136.0,7.0 11.0
12021,7.0,668246.0,1.2,39.0,high,high-low,11.0,rod_fixing,rod_fixing,1.0,148.8200000021607,1554475625558.0,1554475625408.0,BLIND,312.0,7.0 11.0
12339,11.0,668246.0,0.3,39.0,high,high-low,11.0,rod_fixing,rod_fixing,1.0,139.3099999986589,1554475677087.0,1554475676947.0,BLIND,143.0,11.0 11.0
12340,11.0,668246.0,0.3,39.0,high,high-low,11.0,rod_fixing,rod_fixing,1.0,141.52000000467527,1554475677232.0,1554475677090.0,BLIND,144.0,11.0 11.0
12341,11.0,668246.0,0.3,39.0,high,high-low,11.0,rod_fixing,rod_fixing,1.0,128.0900000128895,1554475677363.0,1554475677234.0,BLIND,132.0,11.0 11.0
12342,11.0,668246.0,0.3,39.0,high,high-low,11.0,rod_fixing,rod_fixing,1.0,145.17499998328276,1554475677512.0,1554475677366.0,BLIND,148.0,11.0 11.0
12343,11.0,668246.0,0.3,39.0,high,high-low,11.0,rod_fixing,rod_fixing,1.0,133.60000000102443,1554475677649.0,1554475677514.0,BLIND,138.0,11.0 11.0
12344,11.0,668246.0,0.3,39.0,high,high-low,11.0,rod_fixing,rod_fixing,1.0,139.6099999838043,1554475677792.0,1554475677652.0,BLIND,293.0,11.0 11.0
12762,4.0,668246.0,1.8,39.0,high,high-low,21.0,rod_fixing,rod_fixing,1.0,153.3449999988079,1554475759980.0,1554475759826.0,BLIND,159.0,4.0 21.0
12763,4.0,668246.0,1.8,39.0,high,high-low,21.0,rod_fixing,rod_fixing,1.0,131.33999999263324,1554475760117.0,1554475759985.0,BLIND,136.0,4.0 21.0
12764,4.0,668246.0,1.8,39.0,high,high-low,21.0,rod_fixing,rod_fixing,1.0,139.85999999567866,1554475760262.0,1554475760121.0,BLIND,145.0,4.0 21.0
12765,4.0,668246.0,1.8,39.0,high,high-low,21.0,rod_fixing,rod_fixing,1.0,138.3050000004005,1554475760404.0,1554475760266.0,BLIND,142.0,4.0 21.0
12766,4.0,668246.0,1.8,39.0,high,high-low,21.0,rod_fixing,rod_fixing,1.0,148.01500001340173,1554475760556.0,1554475760408.0,BLIND,153.0,4.0 21.0
12767,4.0,668246.0,1.8,39.0,high,high-low,21.0,rod_fixing,rod_fixing,1.0,146.81999999447726,1554475760708.0,1554475760561.0,BLIND,151.0,4.0 21.0
12768,4.0,668246.0,1.8,39.0,high,high-low,21.0,rod_fixing,rod_fixing,1.0,420.19999999320135,1554475761133.0,1554475760712.0,BLIND,441.0,4.0 21.0
13084,8.0,668246.0,0.3,39.0,high,high-low,21.0,rod_fixing,rod_fixing,1.0,150.1200000056997,1554475812303.0,1554475812153.0,BLIND,154.0,8.0 21.0
13085,8.0,668246.0,0.3,39.0,high,high-low,21.0,rod_fixing,rod_fixing,1.0,123.04999999469145,1554475812431.0,1554475812307.0,BLIND,129.0,8.0 21.0
13086,8.0,668246.0,0.3,39.0,high,high-low,21.0,rod_fixing,rod_fixing,1.0,130.21000000298955,1554475812567.0,1554475812436.0,BLIND,135.0,8.0 21.0
13087,8.0,668246.0,0.3,39.0,high,high-low,21.0,rod_fixing,rod_fixing,1.0,155.880000005709,1554475812727.0,1554475812571.0,BLIND,160.0,8.0 21.0
13088,8.0,668246.0,0.3,39.0,high,high-low,21.0,rod_fixing,rod_fixing,1.0,139.6499999973457,1554475812871.0,1554475812731.0,BLIND,454.0,8.0 21.0
13629,3.0,668246.0,2.5,39.0,low,high-low,12.0,rod_fixing,rod_fixing,1.0,161.56999999657273,1554475937805.0,1554475937642.0,BLIND,168.0,3.0 12.0
13630,3.0,668246.0,2.5,39.0,low,high-low,12.0,rod_fixing,rod_fixing,1.0,153.09000000706874,1554475937963.0,1554475937810.0,BLIND,158.0,3.0 12.0
13631,3.0,668246.0,2.5,39.0,low,high-low,12.0,rod_fixing,rod_fixing,1.0,187.1450000035111,1554475938155.0,1554475937968.0,BLIND,192.0,3.0 12.0
13632,3.0,668246.0,2.5,39.0,low,high-low,12.0,rod_fixing,rod_fixing,1.0,154.99999999883585,1554475938315.0,1554475938160.0,BLIND,161.0,3.0 12.0
13633,3.0,668246.0,2.5,39.0,low,high-low,12.0,rod_fixing,rod_fixing,1.0,169.7449999919627,1554475938491.0,1554475938321.0,BLIND,178.0,3.0 12.0
13634,3.0,668246.0,2.5,39.0,low,high-low,12.0,rod_fixing,rod_fixing,1.0,175.52499999874271,1554475938675.0,1554475938499.0,BLIND,374.0,3.0 12.0
13926,7.0,668246.0,1.2,39.0,low,high-low,12.0,rod_fixing,rod_fixing,1.0,147.94500000425614,1554475990085.0,1554475989937.0,BLIND,151.0,7.0 12.0
13927,7.0,668246.0,1.2,39.0,low,high-low,12.0,rod_fixing,rod_fixing,1.0,134.2000000004191,1554475990223.0,1554475990088.0,BLIND,139.0,7.0 12.0
13928,7.0,668246.0,1.2,39.0,low,high-low,12.0,rod_fixing,rod_fixing,1.0,178.36999997962266,1554475990406.0,1554475990227.0,BLIND,190.0,7.0 12.0
13929,7.0,668246.0,1.2,39.0,low,high-low,12.0,rod_fixing,rod_fixing,1.0,149.17999997851442,1554475990567.0,1554475990417.0,BLIND,159.0,7.0 12.0
13930,7.0,668246.0,1.2,39.0,low,high-low,12.0,rod_fixing,rod_fixing,1.0,173.34999999729916,1554475990750.0,1554475990576.0,BLIND,178.0,7.0 12.0
13931,7.0,668246.0,1.2,39.0,low,high-low,12.0,rod_fixing,rod_fixing,1.0,186.5399999951478,1554475990941.0,1554475990754.0,BLIND,387.0,7.0 12.0
14225,11.0,668246.0,0.3,39.0,low,high-low,12.0,rod_fixing,rod_fixing,1.0,160.81000000122003,1554476042429.0,1554476042267.0,BLIND,167.0,11.0 12.0
14226,11.0,668246.0,0.3,39.0,low,high-low,12.0,rod_fixing,rod_fixing,1.0,186.20499997632575,1554476042621.0,1554476042434.0,BLIND,192.0,11.0 12.0
14227,11.0,668246.0,0.3,39.0,low,high-low,12.0,rod_fixing,rod_fixing,1.0,169.83500000787902,1554476042797.0,1554476042626.0,BLIND,179.0,11.0 12.0
14228,11.0,668246.0,0.3,39.0,low,high-low,12.0,rod_fixing,rod_fixing,1.0,190.86000000243075,1554476042997.0,1554476042805.0,BLIND,196.0,11.0 12.0
14229,11.0,668246.0,0.3,39.0,low,high-low,12.0,rod_fixing,rod_fixing,1.0,171.28500001854263,1554476043173.0,1554476043001.0,BLIND,177.0,11.0 12.0
14230,11.0,668246.0,0.3,39.0,low,high-low,12.0,rod_fixing,rod_fixing,1.0,185.9799999801908,1554476043365.0,1554476043178.0,BLIND,395.0,11.0 12.0
14607,4.0,668246.0,1.8,39.0,low,high-low,22.0,rod_fixing,rod_fixing,1.0,179.19500000425614,1554476137193.0,1554476137014.0,BLIND,184.0,4.0 22.0
14608,4.0,668246.0,1.8,39.0,low,high-low,22.0,rod_fixing,rod_fixing,1.0,162.1600000071339,1554476137361.0,1554476137198.0,BLIND,167.0,4.0 22.0
14609,4.0,668246.0,1.8,39.0,low,high-low,22.0,rod_fixing,rod_fixing,1.0,187.66499997582287,1554476137553.0,1554476137365.0,BLIND,195.0,4.0 22.0
14610,4.0,668246.0,1.8,39.0,low,high-low,22.0,rod_fixing,rod_fixing,1.0,168.25499999686144,1554476137729.0,1554476137560.0,BLIND,175.0,4.0 22.0
14611,4.0,668246.0,1.8,39.0,low,high-low,22.0,rod_fixing,rod_fixing,1.0,169.1149999969639,1554476137905.0,1554476137735.0,BLIND,175.0,4.0 22.0
14612,4.0,668246.0,1.8,39.0,low,high-low,22.0,rod_fixing,rod_fixing,1.0,170.54500000085682,1554476138082.0,1554476137910.0,BLIND,176.0,4.0 22.0
14881,8.0,668246.0,0.3,39.0,low,high-low,22.0,rod_fixing,rod_fixing,1.0,179.05999999493358,1554476189595.0,1554476189415.0,BLIND,183.0,8.0 22.0
14882,8.0,668246.0,0.3,39.0,low,high-low,22.0,rod_fixing,rod_fixing,1.0,188.2000000041444,1554476189787.0,1554476189598.0,BLIND,192.0,8.0 22.0
14883,8.0,668246.0,0.3,39.0,low,high-low,22.0,rod_fixing,rod_fixing,1.0,180.74000001070092,1554476189971.0,1554476189790.0,BLIND,185.0,8.0 22.0
14884,8.0,668246.0,0.3,39.0,low,high-low,22.0,rod_fixing,rod_fixing,1.0,187.43499999982305,1554476190163.0,1554476189975.0,BLIND,191.0,8.0 22.0
14885,8.0,668246.0,0.3,39.0,low,high-low,22.0,rod_fixing,rod_fixing,1.0,196.60000002477318,1554476190363.0,1554476190166.0,BLIND,200.0,8.0 22.0
14886,8.0,668246.0,0.3,39.0,low,high-low,22.0,rod_fixing,rod_fixing,1.0,204.8499999800697,1554476190571.0,1554476190366.0,BLIND,210.0,8.0 22.0
15097,11.0,668246.0,2.5,39.0,low,high-low,22.0,rod_fixing,rod_fixing,1.0,174.97500000172298,1554476228774.0,1554476228599.0,BLIND,181.0,11.0 22.0
15098,11.0,668246.0,2.5,39.0,low,high-low,22.0,rod_fixing,rod_fixing,1.0,162.175000004936,1554476228942.0,1554476228780.0,BLIND,168.0,11.0 22.0
15099,11.0,668246.0,2.5,39.0,low,high-low,22.0,rod_fixing,rod_fixing,1.0,185.18500000936908,1554476229134.0,1554476228948.0,BLIND,193.0,11.0 22.0
15100,11.0,668246.0,2.5,39.0,low,high-low,22.0,rod_fixing,rod_fixing,1.0,233.36000001290813,1554476229375.0,1554476229141.0,BLIND,241.0,11.0 22.0
15101,11.0,668246.0,2.5,39.0,low,high-low,22.0,rod_fixing,rod_fixing,1.0,160.51000001607463,1554476229543.0,1554476229382.0,BLIND,169.0,11.0 22.0
15102,11.0,668246.0,2.5,39.0,low,high-low,22.0,rod_fixing,rod_fixing,1.0,174.25500001991168,1554476229726.0,1554476229551.0,BLIND,387.0,11.0 22.0
154879,3.0,668249.0,0.3,39.0,low,low-high,11.0,rod_fixing,rod_fixing,1.0,148.5499999998865,1554475497738.0,1554475497589.0,BLIND,151.0,3.0 11.0
154880,3.0,668249.0,0.3,39.0,low,low-high,11.0,rod_fixing,rod_fixing,1.0,141.9399999999805,1554475497882.0,1554475497740.0,BLIND,144.0,3.0 11.0
154881,3.0,668249.0,0.3,39.0,low,low-high,11.0,rod_fixing,rod_fixing,1.0,150.1299999999901,1554475498034.0,1554475497884.0,BLIND,151.0,3.0 11.0
154882,3.0,668249.0,0.3,39.0,low,low-high,11.0,rod_fixing,rod_fixing,1.0,150.2749999999651,1554475498186.0,1554475498035.0,BLIND,152.0,3.0 11.0
154883,3.0,668249.0,0.3,39.0,low,low-high,11.0,rod_fixing,rod_fixing,1.0,150.24500000004628,1554475498338.0,1554475498187.0,BLIND,153.0,3.0 11.0
154884,3.0,668249.0,0.3,39.0,low,low-high,11.0,rod_fixing,rod_fixing,1.0,158.26500000002852,1554475498498.0,1554475498340.0,BLIND,160.0,3.0 11.0
154885,3.0,668249.0,0.3,39.0,low,low-high,11.0,rod_fixing,rod_fixing,1.0,150.0199999998149,1554475498650.0,1554475498500.0,BLIND,155.0,3.0 11.0
155183,7.0,668249.0,0.7,39.0,low,low-high,11.0,rod_fixing,rod_fixing,1.0,150.04500000010012,1554475549946.0,1554475549796.0,BLIND,152.0,7.0 11.0
155184,7.0,668249.0,0.7,39.0,low,low-high,11.0,rod_fixing,rod_fixing,1.0,142.18000000005122,1554475550090.0,1554475549948.0,BLIND,144.0,7.0 11.0
155185,7.0,668249.0,0.7,39.0,low,low-high,11.0,rod_fixing,rod_fixing,1.0,165.92000000014374,1554475550258.0,1554475550092.0,BLIND,168.0,7.0 11.0
155186,7.0,668249.0,0.7,39.0,low,low-high,11.0,rod_fixing,rod_fixing,1.0,150.18499999995404,1554475550410.0,1554475550260.0,BLIND,152.0,7.0 11.0
155187,7.0,668249.0,0.7,39.0,low,low-high,11.0,rod_fixing,rod_fixing,1.0,142.0799999998417,1554475550554.0,1554475550412.0,BLIND,143.0,7.0 11.0
155188,7.0,668249.0,0.7,39.0,low,low-high,11.0,rod_fixing,rod_fixing,1.0,166.34500000008848,1554475550722.0,1554475550555.0,BLIND,169.0,7.0 11.0
155189,7.0,668249.0,0.7,39.0,low,low-high,11.0,rod_fixing,rod_fixing,1.0,157.05499999989115,1554475550882.0,1554475550724.0,BLIND,163.0,7.0 11.0
155475,11.0,668249.0,1.2,39.0,low,low-high,11.0,rod_fixing,rod_fixing,1.0,157.8250000000116,1554475601978.0,1554475601820.0,BLIND,160.0,11.0 11.0
155476,11.0,668249.0,1.2,39.0,low,low-high,11.0,rod_fixing,rod_fixing,1.0,149.86999999996627,1554475602131.0,1554475601980.0,BLIND,152.0,11.0 11.0
155477,11.0,668249.0,1.2,39.0,low,low-high,11.0,rod_fixing,rod_fixing,1.0,165.88000000000466,1554475602298.0,1554475602132.0,BLIND,168.0,11.0 11.0
155478,11.0,668249.0,1.2,39.0,low,low-high,11.0,rod_fixing,rod_fixing,1.0,157.88499999986382,1554475602459.0,1554475602300.0,BLIND,161.0,11.0 11.0
155479,11.0,668249.0,1.2,39.0,low,low-high,11.0,rod_fixing,rod_fixing,1.0,157.95999999999182,1554475602619.0,1554475602461.0,BLIND,160.0,11.0 11.0
155480,11.0,668249.0,1.2,39.0,low,low-high,11.0,rod_fixing,rod_fixing,1.0,165.76499999995576,1554475602787.0,1554475602621.0,BLIND,168.0,11.0 11.0
155481,11.0,668249.0,1.2,39.0,low,low-high,11.0,rod_fixing,rod_fixing,1.0,157.65999999985797,1554475602946.0,1554475602789.0,BLIND,165.0,11.0 11.0
155854,4.0,668249.0,0.7,39.0,low,low-high,21.0,rod_fixing,rod_fixing,1.0,157.23000000001048,1554475719364.0,1554475719206.0,BLIND,160.0,4.0 21.0
155855,4.0,668249.0,0.7,39.0,low,low-high,21.0,rod_fixing,rod_fixing,1.0,157.6850000001432,1554475719524.0,1554475719366.0,BLIND,162.0,4.0 21.0
155856,4.0,668249.0,0.7,39.0,low,low-high,21.0,rod_fixing,rod_fixing,1.0,163.7149999999092,1554475719692.0,1554475719528.0,BLIND,168.0,4.0 21.0
155857,4.0,668249.0,0.7,39.0,low,low-high,21.0,rod_fixing,rod_fixing,1.0,171.36499999990338,1554475719867.0,1554475719696.0,BLIND,174.0,4.0 21.0
155858,4.0,668249.0,0.7,39.0,low,low-high,21.0,rod_fixing,rod_fixing,1.0,165.53999999997905,1554475720036.0,1554475719870.0,BLIND,168.0,4.0 21.0
155859,4.0,668249.0,0.7,39.0,low,low-high,21.0,rod_fixing,rod_fixing,1.0,148.980000000156,1554475720187.0,1554475720038.0,BLIND,152.0,4.0 21.0
155860,4.0,668249.0,0.7,39.0,low,low-high,21.0,rod_fixing,rod_fixing,1.0,165.8649999999907,1554475720356.0,1554475720190.0,BLIND,177.0,4.0 21.0
156157,8.0,668249.0,1.8,39.0,low,low-high,21.0,rod_fixing,rod_fixing,1.0,175.2399999999907,1554475771798.0,1554475771622.0,BLIND,179.0,8.0 21.0
156158,8.0,668249.0,1.8,39.0,low,low-high,21.0,rod_fixing,rod_fixing,1.0,153.8149999998859,1554475771956.0,1554475771801.0,BLIND,157.0,8.0 21.0
156159,8.0,668249.0,1.8,39.0,low,low-high,21.0,rod_fixing,rod_fixing,1.0,181.36000000004424,1554475772140.0,1554475771958.0,BLIND,184.0,8.0 21.0
156160,8.0,668249.0,1.8,39.0,low,low-high,21.0,rod_fixing,rod_fixing,1.0,181.63999999978114,1554475772324.0,1554475772142.0,BLIND,184.0,8.0 21.0
156161,8.0,668249.0,1.8,39.0,low,low-high,21.0,rod_fixing,rod_fixing,1.0,165.38999999989755,1554475772492.0,1554475772326.0,BLIND,168.0,8.0 21.0
156162,8.0,668249.0,1.8,39.0,low,low-high,21.0,rod_fixing,rod_fixing,1.0,157.94499999994878,1554475772652.0,1554475772494.0,BLIND,160.0,8.0 21.0
156163,8.0,668249.0,1.8,39.0,low,low-high,21.0,rod_fixing,rod_fixing,1.0,159.15999999991618,1554475772813.0,1554475772654.0,BLIND,170.0,8.0 21.0
156367,11.0,668249.0,0.3,39.0,low,low-high,21.0,rod_fixing,rod_fixing,1.0,133.12499999988358,1554475810924.0,1554475810791.0,BLIND,136.0,11.0 21.0
156368,11.0,668249.0,0.3,39.0,low,low-high,21.0,rod_fixing,rod_fixing,1.0,133.13000000012107,1554475811060.0,1554475810927.0,BLIND,136.0,11.0 21.0
156369,11.0,668249.0,0.3,39.0,low,low-high,21.0,rod_fixing,rod_fixing,1.0,156.66499999997905,1554475811220.0,1554475811063.0,BLIND,160.0,11.0 21.0
156370,11.0,668249.0,0.3,39.0,low,low-high,21.0,rod_fixing,rod_fixing,1.0,133.3500000000931,1554475811356.0,1554475811223.0,BLIND,136.0,11.0 21.0
156371,11.0,668249.0,0.3,39.0,low,low-high,21.0,rod_fixing,rod_fixing,1.0,149.43500000005588,1554475811508.0,1554475811359.0,BLIND,152.0,11.0 21.0
156372,11.0,668249.0,0.3,39.0,low,low-high,21.0,rod_fixing,rod_fixing,1.0,133.07000000006522,1554475811644.0,1554475811511.0,BLIND,136.0,11.0 21.0
156373,11.0,668249.0,0.3,39.0,low,low-high,21.0,rod_fixing,rod_fixing,1.0,125.27000000001864,1554475811772.0,1554475811647.0,BLIND,135.0,11.0 21.0
156702,3.0,668249.0,0.3,39.0,high,high-low,12.0,rod_fixing,rod_fixing,1.0,125.33499999996278,1554475949605.0,1554475949479.0,BLIND,131.0,3.0 12.0
156703,3.0,668249.0,0.3,39.0,high,high-low,12.0,rod_fixing,rod_fixing,1.0,378.199999999837,1554475949989.0,1554475949610.0,BLIND,382.0,3.0 12.0
156704,3.0,668249.0,0.3,39.0,high,high-low,12.0,rod_fixing,rod_fixing,1.0,148.03000000008615,1554475950140.0,1554475949992.0,BLIND,151.0,3.0 12.0
156705,3.0,668249.0,0.3,39.0,high,high-low,12.0,rod_fixing,rod_fixing,1.0,125.14000000007219,1554475950268.0,1554475950143.0,BLIND,130.0,3.0 12.0
156706,3.0,668249.0,0.3,39.0,high,high-low,12.0,rod_fixing,rod_fixing,1.0,107.0299999998533,1554475950380.0,1554475950273.0,BLIND,110.0,3.0 12.0
156707,3.0,668249.0,0.3,39.0,high,high-low,12.0,rod_fixing,rod_fixing,1.0,117.17499999981372,1554475950500.0,1554475950383.0,BLIND,120.0,3.0 12.0
156708,3.0,668249.0,0.3,39.0,high,high-low,12.0,rod_fixing,rod_fixing,1.0,132.9900000000489,1554475950636.0,1554475950503.0,BLIND,145.0,3.0 12.0
157032,7.0,668249.0,0.7,39.0,high,high-low,12.0,rod_fixing,rod_fixing,1.0,139.16500000003722,1554476001700.0,1554476001561.0,BLIND,142.0,7.0 12.0
157033,7.0,668249.0,0.7,39.0,high,high-low,12.0,rod_fixing,rod_fixing,1.0,148.9499999997206,1554476001852.0,1554476001703.0,BLIND,152.0,7.0 12.0
157034,7.0,668249.0,0.7,39.0,high,high-low,12.0,rod_fixing,rod_fixing,1.0,156.625,1554476002012.0,1554476001855.0,BLIND,160.0,7.0 12.0
157035,7.0,668249.0,0.7,39.0,high,high-low,12.0,rod_fixing,rod_fixing,1.0,156.93999999982768,1554476002172.0,1554476002015.0,BLIND,160.0,7.0 12.0
157036,7.0,668249.0,0.7,39.0,high,high-low,12.0,rod_fixing,rod_fixing,1.0,148.53499999979974,1554476002324.0,1554476002175.0,BLIND,154.0,7.0 12.0
157037,7.0,668249.0,0.7,39.0,high,high-low,12.0,rod_fixing,rod_fixing,1.0,162.91499999992084,1554476002492.0,1554476002329.0,BLIND,166.0,7.0 12.0
157038,7.0,668249.0,0.7,39.0,high,high-low,12.0,rod_fixing,rod_fixing,1.0,165.03499999991618,1554476002661.0,1554476002495.0,BLIND,180.0,7.0 12.0
157361,11.0,668249.0,1.2,39.0,high,high-low,12.0,rod_fixing,rod_fixing,1.0,140.12999999977185,1554476054157.0,1554476054016.0,BLIND,143.0,11.0 12.0
157362,11.0,668249.0,1.2,39.0,high,high-low,12.0,rod_fixing,rod_fixing,1.0,125.0350000000326,1554476054285.0,1554476054159.0,BLIND,128.0,11.0 12.0
157363,11.0,668249.0,1.2,39.0,high,high-low,12.0,rod_fixing,rod_fixing,1.0,126.47499999997672,1554476054414.0,1554476054287.0,BLIND,130.0,11.0 12.0
157364,11.0,668249.0,1.2,39.0,high,high-low,12.0,rod_fixing,rod_fixing,1.0,131.75,1554476054549.0,1554476054417.0,BLIND,134.0,11.0 12.0
157365,11.0,668249.0,1.2,39.0,high,high-low,12.0,rod_fixing,rod_fixing,1.0,269.14500000013504,1554476054821.0,1554476054551.0,BLIND,273.0,11.0 12.0
157366,11.0,668249.0,1.2,39.0,high,high-low,12.0,rod_fixing,rod_fixing,1.0,100.6650000003865,1554476054925.0,1554476054824.0,BLIND,248.0,11.0 12.0
157781,4.0,668249.0,0.7,39.0,high,high-low,22.0,rod_fixing,rod_fixing,1.0,145.66500000003725,1554476121349.0,1554476121203.0,BLIND,150.0,4.0 22.0
157782,4.0,668249.0,0.7,39.0,high,high-low,22.0,rod_fixing,rod_fixing,1.0,164.2099999998463,1554476121517.0,1554476121353.0,BLIND,168.0,4.0 22.0
157783,4.0,668249.0,0.7,39.0,high,high-low,22.0,rod_fixing,rod_fixing,1.0,171.90000000025609,1554476121693.0,1554476121521.0,BLIND,176.0,4.0 22.0
157784,4.0,668249.0,0.7,39.0,high,high-low,22.0,rod_fixing,rod_fixing,1.0,171.61499999975788,1554476121869.0,1554476121697.0,BLIND,175.0,4.0 22.0
157785,4.0,668249.0,0.7,39.0,high,high-low,22.0,rod_fixing,rod_fixing,1.0,124.95499999972526,1554476121998.0,1554476121872.0,BLIND,130.0,4.0 22.0
157786,4.0,668249.0,0.7,39.0,high,high-low,22.0,rod_fixing,rod_fixing,1.0,180.14999999967404,1554476122182.0,1554476122002.0,BLIND,184.0,4.0 22.0
157787,4.0,668249.0,0.7,39.0,high,high-low,22.0,rod_fixing,rod_fixing,1.0,322.9400000000605,1554476122509.0,1554476122186.0,BLIND,339.0,4.0 22.0
158083,8.0,668249.0,1.8,39.0,high,high-low,22.0,rod_fixing,rod_fixing,1.0,169.625,1554476173277.0,1554476173107.0,BLIND,174.0,8.0 22.0
158084,8.0,668249.0,1.8,39.0,high,high-low,22.0,rod_fixing,rod_fixing,1.0,156.5700000000652,1554476173438.0,1554476173281.0,BLIND,162.0,8.0 22.0
158085,8.0,668249.0,1.8,39.0,high,high-low,22.0,rod_fixing,rod_fixing,1.0,169.9899999998743,1554476173614.0,1554476173443.0,BLIND,174.0,8.0 22.0
158086,8.0,668249.0,1.8,39.0,high,high-low,22.0,rod_fixing,rod_fixing,1.0,179.68500000005588,1554476173797.0,1554476173617.0,BLIND,187.0,8.0 22.0
158087,8.0,668249.0,1.8,39.0,high,high-low,22.0,rod_fixing,rod_fixing,1.0,144.96000000007916,1554476173949.0,1554476173804.0,BLIND,150.0,8.0 22.0
158088,8.0,668249.0,1.8,39.0,high,high-low,22.0,rod_fixing,rod_fixing,1.0,203.6499999999069,1554476174157.0,1554476173954.0,BLIND,207.0,8.0 22.0
158089,8.0,668249.0,1.8,39.0,high,high-low,22.0,rod_fixing,rod_fixing,1.0,172.8850000000093,1554476174334.0,1554476174161.0,BLIND,189.0,8.0 22.0
158302,11.0,668249.0,0.3,39.0,high,high-low,22.0,rod_fixing,rod_fixing,1.0,147.11000000033528,1554476213886.0,1554476213738.0,BLIND,154.0,11.0 22.0
158303,11.0,668249.0,0.3,39.0,high,high-low,22.0,rod_fixing,rod_fixing,1.0,154.1400000001304,1554476214046.0,1554476213892.0,BLIND,158.0,11.0 22.0
158304,11.0,668249.0,0.3,39.0,high,high-low,22.0,rod_fixing,rod_fixing,1.0,172.18499999982305,1554476214223.0,1554476214050.0,BLIND,178.0,11.0 22.0
158305,11.0,668249.0,0.3,39.0,high,high-low,22.0,rod_fixing,rod_fixing,1.0,185.75500000000463,1554476214414.0,1554476214228.0,BLIND,190.0,11.0 22.0
158306,11.0,668249.0,0.3,39.0,high,high-low,22.0,rod_fixing,rod_fixing,1.0,195.90999999991615,1554476214614.0,1554476214418.0,BLIND,588.0,11.0 22.0
15385,3.0,668251.0,0.7,39.0,high,high-low,11.0,rod_fixing,rod_fixing,1.0,165.37500000049474,1554475738807.0,1554475738641.0,BLIND,169.0,3.0 11.0
15386,3.0,668251.0,0.7,39.0,high,high-low,11.0,rod_fixing,rod_fixing,1.0,170.39499999737018,1554475738981.0,1554475738810.0,BLIND,173.0,3.0 11.0
15387,3.0,668251.0,0.7,39.0,high,high-low,11.0,rod_fixing,rod_fixing,1.0,164.86000000077183,1554475739149.0,1554475738983.0,BLIND,167.0,3.0 11.0
15388,3.0,668251.0,0.7,39.0,high,high-low,11.0,rod_fixing,rod_fixing,1.0,158.4350000011909,1554475739309.0,1554475739150.0,BLIND,162.0,3.0 11.0
15389,3.0,668251.0,0.7,39.0,high,high-low,11.0,rod_fixing,rod_fixing,1.0,164.3900000017311,1554475739477.0,1554475739312.0,BLIND,168.0,3.0 11.0
15390,3.0,668251.0,0.7,39.0,high,high-low,11.0,rod_fixing,rod_fixing,1.0,163.23499999998603,1554475739645.0,1554475739480.0,BLIND,168.0,3.0 11.0
15391,3.0,668251.0,0.7,39.0,high,high-low,11.0,rod_fixing,rod_fixing,1.0,154.98999999908847,1554475739805.0,1554475739648.0,BLIND,166.0,3.0 11.0
15623,7.0,668251.0,2.5,39.0,high,high-low,11.0,rod_fixing,rod_fixing,1.0,179.33500000071945,1554475790726.0,1554475790546.0,BLIND,183.0,7.0 11.0
15624,7.0,668251.0,2.5,39.0,high,high-low,11.0,rod_fixing,rod_fixing,1.0,196.02999999915482,1554475790926.0,1554475790729.0,BLIND,203.0,7.0 11.0
15625,7.0,668251.0,2.5,39.0,high,high-low,11.0,rod_fixing,rod_fixing,1.0,177.9199999982666,1554475791110.0,1554475790932.0,BLIND,182.0,7.0 11.0
15626,7.0,668251.0,2.5,39.0,high,high-low,11.0,rod_fixing,rod_fixing,1.0,147.89499999824332,1554475791262.0,1554475791114.0,BLIND,150.0,7.0 11.0
15627,7.0,668251.0,2.5,39.0,high,high-low,11.0,rod_fixing,rod_fixing,1.0,165.4950000011013,1554475791430.0,1554475791264.0,BLIND,169.0,7.0 11.0
15628,7.0,668251.0,2.5,39.0,high,high-low,11.0,rod_fixing,rod_fixing,1.0,173.27999999906748,1554475791607.0,1554475791433.0,BLIND,180.0,7.0 11.0
15629,7.0,668251.0,2.5,39.0,high,high-low,11.0,rod_fixing,rod_fixing,1.0,151.80500000133182,1554475791766.0,1554475791613.0,BLIND,164.0,7.0 11.0
15854,11.0,668251.0,0.1,39.0,high,high-low,11.0,rod_fixing,rod_fixing,1.0,148.19999999963332,1554475843519.0,1554475843371.0,BLIND,150.0,11.0 11.0
15855,11.0,668251.0,0.1,39.0,high,high-low,11.0,rod_fixing,rod_fixing,1.0,181.53000000165773,1554475843704.0,1554475843521.0,BLIND,185.0,11.0 11.0
15856,11.0,668251.0,0.1,39.0,high,high-low,11.0,rod_fixing,rod_fixing,1.0,156.75999999803025,1554475843863.0,1554475843706.0,BLIND,159.0,11.0 11.0
15857,11.0,668251.0,0.1,39.0,high,high-low,11.0,rod_fixing,rod_fixing,1.0,197.31500000125382,1554475844063.0,1554475843865.0,BLIND,200.0,11.0 11.0
15858,11.0,668251.0,0.1,39.0,high,high-low,11.0,rod_fixing,rod_fixing,1.0,173.6749999981839,1554475844240.0,1554475844065.0,BLIND,178.0,11.0 11.0
