index,trial_index,id,price_displayed,key pressed,environment,order,round_instance,task,function_id,quality_check,builtin_rt,end_time,start_time,Participant Public ID,key_pressed,latency,trial_label
186,3.0,668239.0,0.7,39.0,high,high-low,11.0,rod_fixing,rod_fixing,1.0,897.2950000024865,1554475241911.0,1554475241014.0,BLIND,39.0,899.0,3.0 11.0
187,3.0,668239.0,0.7,39.0,high,high-low,11.0,rod_fixing,rod_fixing,1.0,128.7300000039977,1554475242042.0,1554475241913.0,BLIND,39.0,130.0,3.0 11.0
188,3.0,668239.0,0.7,39.0,high,high-low,11.0,rod_fixing,rod_fixing,1.0,127.76999999914551,1554475242171.0,1554475242043.0,BLIND,39.0,129.0,3.0 11.0
189,3.0,668239.0,0.7,39.0,high,high-low,11.0,rod_fixing,rod_fixing,1.0,129.30999999662166,1554475242302.0,1554475242172.0,BLIND,39.0,132.0,3.0 11.0
190,3.0,668239.0,0.7,39.0,high,high-low,11.0,rod_fixing,rod_fixing,1.0,124.27499999466818,1554475242429.0,1554475242304.0,BLIND,39.0,127.0,3.0 11.0
191,3.0,668239.0,0.7,39.0,high,high-low,11.0,rod_fixing,rod_fixing,1.0,129.77499999396971,1554475242561.0,1554475242431.0,BLIND,39.0,131.0,3.0 11.0
549,7.0,668239.0,2.5,39.0,high,high-low,11.0,rod_fixing,rod_fixing,1.0,323.4549999979208,1554475293510.0,1554475293186.0,BLIND,39.0,325.0,7.0 11.0
550,7.0,668239.0,2.5,39.0,high,high-low,11.0,rod_fixing,rod_fixing,1.0,257.7700000038021,1554475293769.0,1554475293511.0,BLIND,39.0,265.0,7.0 11.0
551,7.0,668239.0,2.5,39.0,high,high-low,11.0,rod_fixing,rod_fixing,1.0,129.03499999811172,1554475293905.0,1554475293776.0,BLIND,39.0,131.0,7.0 11.0
552,7.0,668239.0,2.5,39.0,high,high-low,11.0,rod_fixing,rod_fixing,1.0,137.8499999991618,1554475294045.0,1554475293907.0,BLIND,39.0,139.0,7.0 11.0
553,7.0,668239.0,2.5,39.0,high,high-low,11.0,rod_fixing,rod_fixing,1.0,135.67999999941094,1554475294182.0,1554475294046.0,BLIND,39.0,138.0,7.0 11.0
554,7.0,668239.0,2.5,39.0,high,high-low,11.0,rod_fixing,rod_fixing,1.0,137.39499999792315,1554475294321.0,1554475294184.0,BLIND,39.0,141.0,7.0 11.0
555,7.0,668239.0,2.5,39.0,high,high-low,11.0,rod_fixing,rod_fixing,1.0,132.64999999955762,1554475294458.0,1554475294325.0,BLIND,39.0,134.0,7.0 11.0
897,11.0,668239.0,0.3,39.0,high,high-low,11.0,rod_fixing,rod_fixing,1.0,353.75000000203727,1554475345765.0,1554475345410.0,BLIND,39.0,356.0,11.0 11.0
898,11.0,668239.0,0.3,39.0,high,high-low,11.0,rod_fixing,rod_fixing,1.0,145.80500000010943,1554475345912.0,1554475345766.0,BLIND,39.0,148.0,11.0 11.0
899,11.0,668239.0,0.3,39.0,high,high-low,11.0,rod_fixing,rod_fixing,1.0,125.63500000396743,1554475346040.0,1554475345914.0,BLIND,39.0,127.0,11.0 11.0
900,11.0,668239.0,0.3,39.0,high,high-low,11.0,rod_fixing,rod_fixing,1.0,140.00499999383464,1554475346181.0,1554475346041.0,BLIND,39.0,141.0,11.0 11.0
901,11.0,668239.0,0.3,39.0,high,high-low,11.0,rod_fixing,rod_fixing,1.0,138.0799999969895,1554475346321.0,1554475346182.0,BLIND,39.0,140.0,11.0 11.0
902,11.0,668239.0,0.3,39.0,high,high-low,11.0,rod_fixing,rod_fixing,1.0,140.41500000166707,1554475346462.0,1554475346322.0,BLIND,39.0,142.0,11.0 11.0
903,11.0,668239.0,0.3,39.0,high,high-low,11.0,rod_fixing,rod_fixing,1.0,140.80500000272878,1554475346605.0,1554475346464.0,BLIND,39.0,146.0,11.0 11.0
1370,4.0,668239.0,0.1,39.0,high,high-low,21.0,rod_fixing,rod_fixing,1.0,553.090000001248,1554475468560.0,1554475468007.0,BLIND,39.0,554.0,4.0 21.0
1371,4.0,668239.0,0.1,39.0,high,high-low,21.0,rod_fixing,rod_fixing,1.0,115.49999999988357,1554475468677.0,1554475468561.0,BLIND,39.0,117.0,4.0 21.0
1372,4.0,668239.0,0.1,39.0,high,high-low,21.0,rod_fixing,rod_fixing,1.0,121.12499999784632,1554475468800.0,1554475468678.0,BLIND,39.0,124.0,4.0 21.0
1373,4.0,668239.0,0.1,39.0,high,high-low,21.0,rod_fixing,rod_fixing,1.0,135.9950000041863,1554475468938.0,1554475468802.0,BLIND,39.0,138.0,4.0 21.0
1374,4.0,668239.0,0.1,39.0,high,high-low,21.0,rod_fixing,rod_fixing,1.0,127.16000000364149,1554475469068.0,1554475468940.0,BLIND,39.0,129.0,4.0 21.0
1724,8.0,668239.0,0.7,39.0,high,high-low,21.0,rod_fixing,rod_fixing,1.0,774.6449999976903,1554475521166.0,1554475520391.0,BLIND,39.0,776.0,8.0 21.0
1725,8.0,668239.0,0.7,39.0,high,high-low,21.0,rod_fixing,rod_fixing,1.0,136.90499999938766,1554475521304.0,1554475521167.0,BLIND,39.0,139.0,8.0 21.0
1726,8.0,668239.0,0.7,39.0,high,high-low,21.0,rod_fixing,rod_fixing,1.0,112.59500000596745,1554475521418.0,1554475521306.0,BLIND,39.0,114.0,8.0 21.0
1727,8.0,668239.0,0.7,39.0,high,high-low,21.0,rod_fixing,rod_fixing,1.0,124.36499999603257,1554475521544.0,1554475521420.0,BLIND,39.0,126.0,8.0 21.0
1728,8.0,668239.0,0.7,39.0,high,high-low,21.0,rod_fixing,rod_fixing,1.0,130.85500000306638,1554475521677.0,1554475521546.0,BLIND,39.0,134.0,8.0 21.0
1999,11.0,668239.0,1.2,39.0,high,high-low,21.0,rod_fixing,rod_fixing,1.0,584.6149999997579,1554475560161.0,1554475559576.0,BLIND,39.0,586.0,11.0 21.0
2000,11.0,668239.0,1.2,39.0,high,high-low,21.0,rod_fixing,rod_fixing,1.0,139.790000001085,1554475560302.0,1554475560162.0,BLIND,39.0,146.0,11.0 21.0
2001,11.0,668239.0,1.2,39.0,high,high-low,21.0,rod_fixing,rod_fixing,1.0,126.74999999580903,1554475560435.0,1554475560308.0,BLIND,39.0,129.0,11.0 21.0
2002,11.0,668239.0,1.2,39.0,high,high-low,21.0,rod_fixing,rod_fixing,1.0,123.8249999951222,1554475560562.0,1554475560437.0,BLIND,39.0,126.0,11.0 21.0
2003,11.0,668239.0,1.2,39.0,high,high-low,21.0,rod_fixing,rod_fixing,1.0,130.1099999982398,1554475560693.0,1554475560563.0,BLIND,39.0,134.0,11.0 21.0
2004,11.0,668239.0,1.2,39.0,high,high-low,21.0,rod_fixing,rod_fixing,1.0,117.47000000468687,1554475560815.0,1554475560697.0,BLIND,39.0,124.0,11.0 21.0
2350,3.0,668239.0,0.7,39.0,low,high-low,12.0,rod_fixing,rod_fixing,1.0,412.4300000039512,1554475695825.0,1554475695413.0,BLIND,39.0,414.0,3.0 12.0
2351,3.0,668239.0,0.7,39.0,low,high-low,12.0,rod_fixing,rod_fixing,1.0,136.27000000269618,1554475695964.0,1554475695827.0,BLIND,39.0,142.0,3.0 12.0
2352,3.0,668239.0,0.7,39.0,low,high-low,12.0,rod_fixing,rod_fixing,1.0,132.28499999968335,1554475696101.0,1554475695969.0,BLIND,39.0,134.0,3.0 12.0
2353,3.0,668239.0,0.7,39.0,low,high-low,12.0,rod_fixing,rod_fixing,1.0,130.07999999535969,1554475696234.0,1554475696103.0,BLIND,39.0,134.0,3.0 12.0
2354,3.0,668239.0,0.7,39.0,low,high-low,12.0,rod_fixing,rod_fixing,1.0,129.33000000339234,1554475696367.0,1554475696237.0,BLIND,39.0,134.0,3.0 12.0
2355,3.0,668239.0,0.7,39.0,low,high-low,12.0,rod_fixing,rod_fixing,1.0,142.13500000187196,1554475696513.0,1554475696371.0,BLIND,39.0,144.0,3.0 12.0
2356,3.0,668239.0,0.7,39.0,low,high-low,12.0,rod_fixing,rod_fixing,1.0,136.8099999963306,1554475696652.0,1554475696515.0,BLIND,39.0,139.0,3.0 12.0
2683,7.0,668239.0,2.5,39.0,low,high-low,12.0,rod_fixing,rod_fixing,1.0,1055.029999995837,1554475748804.0,1554475747749.0,BLIND,39.0,1060.0,7.0 12.0
2684,7.0,668239.0,2.5,39.0,low,high-low,12.0,rod_fixing,rod_fixing,1.0,132.6249999983702,1554475748942.0,1554475748809.0,BLIND,39.0,135.0,7.0 12.0
2685,7.0,668239.0,2.5,39.0,low,high-low,12.0,rod_fixing,rod_fixing,1.0,130.3649999973131,1554475749075.0,1554475748944.0,BLIND,39.0,133.0,7.0 12.0
2686,7.0,668239.0,2.5,39.0,low,high-low,12.0,rod_fixing,rod_fixing,1.0,143.46500000101514,1554475749221.0,1554475749077.0,BLIND,39.0,147.0,7.0 12.0
2687,7.0,668239.0,2.5,39.0,low,high-low,12.0,rod_fixing,rod_fixing,1.0,147.85999999730848,1554475749372.0,1554475749224.0,BLIND,39.0,155.0,7.0 12.0
2688,7.0,668239.0,2.5,39.0,low,high-low,12.0,rod_fixing,rod_fixing,1.0,135.31000000506174,1554475749515.0,1554475749379.0,BLIND,39.0,138.0,7.0 12.0
3008,11.0,668239.0,0.3,39.0,low,high-low,12.0,rod_fixing,rod_fixing,1.0,390.2349999989383,1554475800453.0,1554475800063.0,BLIND,39.0,392.0,11.0 12.0
3009,11.0,668239.0,0.3,39.0,low,high-low,12.0,rod_fixing,rod_fixing,1.0,164.64999999885913,1554475800620.0,1554475800455.0,BLIND,39.0,167.0,11.0 12.0
3010,11.0,668239.0,0.3,39.0,low,high-low,12.0,rod_fixing,rod_fixing,1.0,121.26500000152737,1554475800743.0,1554475800622.0,BLIND,39.0,124.0,11.0 12.0
3011,11.0,668239.0,0.3,39.0,low,high-low,12.0,rod_fixing,rod_fixing,1.0,126.04500000446569,1554475800872.0,1554475800746.0,BLIND,39.0,128.0,11.0 12.0
3012,11.0,668239.0,0.3,39.0,low,high-low,12.0,rod_fixing,rod_fixing,1.0,136.71500000054948,1554475801011.0,1554475800874.0,BLIND,39.0,141.0,11.0 12.0
3013,11.0,668239.0,0.3,39.0,low,high-low,12.0,rod_fixing,rod_fixing,1.0,139.0200000023469,1554475801154.0,1554475801015.0,BLIND,39.0,141.0,11.0 12.0
3446,4.0,668239.0,0.1,39.0,low,high-low,22.0,rod_fixing,rod_fixing,1.0,316.0900000003166,1554475945964.0,1554475945648.0,BLIND,39.0,318.0,4.0 22.0
3447,4.0,668239.0,0.1,39.0,low,high-low,22.0,rod_fixing,rod_fixing,1.0,124.94499999599066,1554475946091.0,1554475945966.0,BLIND,39.0,128.0,4.0 22.0
3448,4.0,668239.0,0.1,39.0,low,high-low,22.0,rod_fixing,rod_fixing,1.0,123.50500000326427,1554475946217.0,1554475946094.0,BLIND,39.0,126.0,4.0 22.0
3449,4.0,668239.0,0.1,39.0,low,high-low,22.0,rod_fixing,rod_fixing,1.0,126.104999995674,1554475946347.0,1554475946220.0,BLIND,39.0,133.0,4.0 22.0
3450,4.0,668239.0,0.1,39.0,low,high-low,22.0,rod_fixing,rod_fixing,1.0,118.705000000773,1554475946472.0,1554475946353.0,BLIND,39.0,121.0,4.0 22.0
3451,4.0,668239.0,0.1,39.0,low,high-low,22.0,rod_fixing,rod_fixing,1.0,117.14500000374392,1554475946592.0,1554475946474.0,BLIND,39.0,123.0,4.0 22.0
3794,8.0,668239.0,0.7,39.0,low,high-low,22.0,rod_fixing,rod_fixing,1.0,950.3049999984213,1554475998946.0,1554475997996.0,BLIND,39.0,955.0,8.0 22.0
3795,8.0,668239.0,0.7,39.0,low,high-low,22.0,rod_fixing,rod_fixing,1.0,126.32500000472645,1554475999078.0,1554475998951.0,BLIND,39.0,135.0,8.0 22.0
3796,8.0,668239.0,0.7,39.0,low,high-low,22.0,rod_fixing,rod_fixing,1.0,108.18499999737831,1554475999195.0,1554475999086.0,BLIND,39.0,112.0,8.0 22.0
3797,8.0,668239.0,0.7,39.0,low,high-low,22.0,rod_fixing,rod_fixing,1.0,126.82500000670551,1554475999325.0,1554475999198.0,BLIND,39.0,132.0,8.0 22.0
3798,8.0,668239.0,0.7,39.0,low,high-low,22.0,rod_fixing,rod_fixing,1.0,123.07000000146219,1554475999454.0,1554475999330.0,BLIND,39.0,126.0,8.0 22.0
3799,8.0,668239.0,0.7,39.0,low,high-low,22.0,rod_fixing,rod_fixing,1.0,122.66000000084749,1554475999579.0,1554475999456.0,BLIND,39.0,125.0,8.0 22.0
4056,11.0,668239.0,1.2,39.0,low,high-low,22.0,rod_fixing,rod_fixing,1.0,320.59499999741087,1554476037494.0,1554476037174.0,BLIND,39.0,323.0,11.0 22.0
4057,11.0,668239.0,1.2,39.0,low,high-low,22.0,rod_fixing,rod_fixing,1.0,129.0500000033062,1554476037627.0,1554476037497.0,BLIND,39.0,134.0,11.0 22.0
4058,11.0,668239.0,1.2,39.0,low,high-low,22.0,rod_fixing,rod_fixing,1.0,119.2349999982398,1554476037751.0,1554476037631.0,BLIND,39.0,123.0,11.0 22.0
4059,11.0,668239.0,1.2,39.0,low,high-low,22.0,rod_fixing,rod_fixing,1.0,133.95500000473112,1554476037888.0,1554476037754.0,BLIND,39.0,142.0,11.0 22.0
4060,11.0,668239.0,1.2,39.0,low,high-low,22.0,rod_fixing,rod_fixing,1.0,130.47499999799766,1554476038027.0,1554476037896.0,BLIND,39.0,133.0,11.0 22.0
4061,11.0,668239.0,1.2,39.0,low,high-low,22.0,rod_fixing,rod_fixing,1.0,118.12500000093132,1554476038148.0,1554476038029.0,BLIND,39.0,121.0,11.0 22.0
4394,3.0,668237.0,0.7,39.0,high,high-low,11.0,rod_fixing,rod_fixing,1.0,805.5249999742955,1554475361812.0,1554475361005.0,BLIND,39.0,818.0,3.0 11.0
4395,3.0,668237.0,0.7,39.0,high,high-low,11.0,rod_fixing,rod_fixing,1.0,150.02999996067956,1554475361974.0,1554475361823.0,BLIND,39.0,160.0,3.0 11.0
4396,3.0,668237.0,0.7,39.0,high,high-low,11.0,rod_fixing,rod_fixing,1.0,156.1249999795109,1554475362141.0,1554475361983.0,BLIND,39.0,167.0,3.0 11.0
4397,3.0,668237.0,0.7,39.0,high,high-low,11.0,rod_fixing,rod_fixing,1.0,137.09000003291294,1554475362288.0,1554475362150.0,BLIND,39.0,143.0,3.0 11.0
4398,3.0,668237.0,0.7,39.0,high,high-low,11.0,rod_fixing,rod_fixing,1.0,152.07000001100823,1554475362447.0,1554475362293.0,BLIND,39.0,159.0,3.0 11.0
4399,3.0,668237.0,0.7,39.0,high,high-low,11.0,rod_fixing,rod_fixing,1.0,152.48499996960163,1554475362605.0,1554475362452.0,BLIND,39.0,157.0,3.0 11.0
4683,7.0,668237.0,2.5,39.0,high,high-low,11.0,rod_fixing,rod_fixing,1.0,783.1799999694341,1554475414287.0,1554475413503.0,BLIND,39.0,793.0,7.0 11.0
4684,7.0,668237.0,2.5,39.0,high,high-low,11.0,rod_fixing,rod_fixing,1.0,166.71499999938533,1554475414464.0,1554475414296.0,BLIND,39.0,175.0,7.0 11.0
4685,7.0,668237.0,2.5,39.0,high,high-low,11.0,rod_fixing,rod_fixing,1.0,114.72500005038457,1554475414588.0,1554475414471.0,BLIND,39.0,124.0,7.0 11.0
4686,7.0,668237.0,2.5,39.0,high,high-low,11.0,rod_fixing,rod_fixing,1.0,117.3149999813177,1554475414713.0,1554475414595.0,BLIND,39.0,125.0,7.0 11.0
4687,7.0,668237.0,2.5,39.0,high,high-low,11.0,rod_fixing,rod_fixing,1.0,134.09999996656552,1554475414855.0,1554475414720.0,BLIND,39.0,141.0,7.0 11.0
4688,7.0,668237.0,2.5,39.0,high,high-low,11.0,rod_fixing,rod_fixing,1.0,138.55500001227483,1554475415000.0,1554475414861.0,BLIND,39.0,144.0,7.0 11.0
4980,11.0,668237.0,1.2,39.0,high,high-low,11.0,rod_fixing,rod_fixing,1.0,1084.7700000158509,1554475466932.0,1554475465846.0,BLIND,39.0,1092.0,11.0 11.0
4981,11.0,668237.0,1.2,39.0,high,high-low,11.0,rod_fixing,rod_fixing,1.0,178.88500000117347,1554475467118.0,1554475466938.0,BLIND,39.0,186.0,11.0 11.0
4982,11.0,668237.0,1.2,39.0,high,high-low,11.0,rod_fixing,rod_fixing,1.0,151.67500003008172,1554475467277.0,1554475467124.0,BLIND,39.0,161.0,11.0 11.0
4983,11.0,668237.0,1.2,39.0,high,high-low,11.0,rod_fixing,rod_fixing,1.0,153.11000001383943,1554475467440.0,1554475467285.0,BLIND,39.0,161.0,11.0 11.0
4984,11.0,668237.0,1.2,39.0,high,high-low,11.0,rod_fixing,rod_fixing,1.0,155.37499997299162,1554475467603.0,1554475467446.0,BLIND,39.0,164.0,11.0 11.0
4985,11.0,668237.0,1.2,39.0,high,high-low,11.0,rod_fixing,rod_fixing,1.0,153.62500003539023,1554475467765.0,1554475467610.0,BLIND,39.0,162.0,11.0 11.0
5360,4.0,668237.0,0.3,39.0,high,high-low,21.0,rod_fixing,rod_fixing,1.0,859.6000000252388,1554475542472.0,1554475541612.0,BLIND,39.0,875.0,4.0 21.0
5361,4.0,668237.0,0.3,39.0,high,high-low,21.0,rod_fixing,rod_fixing,1.0,136.9249999988824,1554475542626.0,1554475542487.0,BLIND,39.0,147.0,4.0 21.0
5362,4.0,668237.0,0.3,39.0,high,high-low,21.0,rod_fixing,rod_fixing,1.0,143.21000000927597,1554475542779.0,1554475542634.0,BLIND,39.0,154.0,4.0 21.0
5363,4.0,668237.0,0.3,39.0,high,high-low,21.0,rod_fixing,rod_fixing,1.0,145.96500003244728,1554475542936.0,1554475542788.0,BLIND,39.0,160.0,4.0 21.0
5364,4.0,668237.0,0.3,39.0,high,high-low,21.0,rod_fixing,rod_fixing,1.0,143.37000000523403,1554475543093.0,1554475542948.0,BLIND,39.0,157.0,4.0 21.0
5365,4.0,668237.0,0.3,39.0,high,high-low,21.0,rod_fixing,rod_fixing,1.0,148.75500003108758,1554475543255.0,1554475543105.0,BLIND,39.0,158.0,4.0 21.0
5366,4.0,668237.0,0.3,39.0,high,high-low,21.0,rod_fixing,rod_fixing,1.0,140.40499995462594,1554475543404.0,1554475543263.0,BLIND,39.0,151.0,4.0 21.0
5680,8.0,668237.0,0.3,39.0,high,high-low,21.0,rod_fixing,rod_fixing,1.0,850.1999999862164,1554475594845.0,1554475593993.0,BLIND,39.0,863.0,8.0 21.0
5681,8.0,668237.0,0.3,39.0,high,high-low,21.0,rod_fixing,rod_fixing,1.0,158.52500003529713,1554475595015.0,1554475594856.0,BLIND,39.0,169.0,8.0 21.0
5682,8.0,668237.0,0.3,39.0,high,high-low,21.0,rod_fixing,rod_fixing,1.0,152.83500001532957,1554475595179.0,1554475595025.0,BLIND,39.0,159.0,8.0 21.0
5683,8.0,668237.0,0.3,39.0,high,high-low,21.0,rod_fixing,rod_fixing,1.0,162.36499999649826,1554475595347.0,1554475595184.0,BLIND,39.0,172.0,8.0 21.0
5684,8.0,668237.0,0.3,39.0,high,high-low,21.0,rod_fixing,rod_fixing,1.0,170.64500000560656,1554475595527.0,1554475595356.0,BLIND,39.0,181.0,8.0 21.0
5685,8.0,668237.0,0.3,39.0,high,high-low,21.0,rod_fixing,rod_fixing,1.0,163.07000000961125,1554475595702.0,1554475595537.0,BLIND,39.0,176.0,8.0 21.0
5686,8.0,668237.0,0.3,39.0,high,high-low,21.0,rod_fixing,rod_fixing,1.0,157.26500004529953,1554475595871.0,1554475595713.0,BLIND,39.0,170.0,8.0 21.0
5861,11.0,668237.0,1.8,39.0,high,high-low,21.0,rod_fixing,rod_fixing,1.0,953.7000000127592,1554475634151.0,1554475633196.0,BLIND,39.0,967.0,11.0 21.0
5862,11.0,668237.0,1.8,39.0,high,high-low,21.0,rod_fixing,rod_fixing,1.0,129.14999999338758,1554475634293.0,1554475634163.0,BLIND,39.0,143.0,11.0 21.0
5863,11.0,668237.0,1.8,39.0,high,high-low,21.0,rod_fixing,rod_fixing,1.0,133.9799999841489,1554475634441.0,1554475634306.0,BLIND,39.0,145.0,11.0 21.0
5864,11.0,668237.0,1.8,39.0,high,high-low,21.0,rod_fixing,rod_fixing,1.0,148.25499994913116,1554475634601.0,1554475634451.0,BLIND,39.0,162.0,11.0 21.0
5865,11.0,668237.0,1.8,39.0,high,high-low,21.0,rod_fixing,rod_fixing,1.0,150.4399999976158,1554475634765.0,1554475634613.0,BLIND,39.0,164.0,11.0 21.0
5866,11.0,668237.0,1.8,39.0,high,high-low,21.0,rod_fixing,rod_fixing,1.0,157.1150000090711,1554475634936.0,1554475634777.0,BLIND,39.0,173.0,11.0 21.0
6188,3.0,668237.0,0.7,39.0,low,high-low,12.0,rod_fixing,rod_fixing,1.0,789.0899999765678,1554475722508.0,1554475721718.0,BLIND,39.0,804.0,3.0 12.0
6189,3.0,668237.0,0.7,39.0,low,high-low,12.0,rod_fixing,rod_fixing,1.0,140.76999999815598,1554475722664.0,1554475722522.0,BLIND,39.0,156.0,3.0 12.0
6190,3.0,668237.0,0.7,39.0,low,high-low,12.0,rod_fixing,rod_fixing,1.0,142.72499998332933,1554475722822.0,1554475722678.0,BLIND,39.0,154.0,3.0 12.0
6191,3.0,668237.0,0.7,39.0,low,high-low,12.0,rod_fixing,rod_fixing,1.0,128.00999998580664,1554475722961.0,1554475722832.0,BLIND,39.0,139.0,3.0 12.0
6192,3.0,668237.0,0.7,39.0,low,high-low,12.0,rod_fixing,rod_fixing,1.0,150.71000001626092,1554475723123.0,1554475722971.0,BLIND,39.0,160.0,3.0 12.0
6193,3.0,668237.0,0.7,39.0,low,high-low,12.0,rod_fixing,rod_fixing,1.0,138.40499997604638,1554475723270.0,1554475723131.0,BLIND,39.0,152.0,3.0 12.0
6477,7.0,668237.0,2.5,39.0,low,high-low,12.0,rod_fixing,rod_fixing,1.0,782.5900000170806,1554475774731.0,1554475773947.0,BLIND,39.0,800.0,7.0 12.0
6478,7.0,668237.0,2.5,39.0,low,high-low,12.0,rod_fixing,rod_fixing,1.0,137.9949999973178,1554475774886.0,1554475774747.0,BLIND,39.0,154.0,7.0 12.0
6479,7.0,668237.0,2.5,39.0,low,high-low,12.0,rod_fixing,rod_fixing,1.0,157.6350000104867,1554475775060.0,1554475774901.0,BLIND,39.0,173.0,7.0 12.0
6480,7.0,668237.0,2.5,39.0,low,high-low,12.0,rod_fixing,rod_fixing,1.0,134.9599999957718,1554475775210.0,1554475775074.0,BLIND,39.0,149.0,7.0 12.0
6481,7.0,668237.0,2.5,39.0,low,high-low,12.0,rod_fixing,rod_fixing,1.0,140.11500001652166,1554475775363.0,1554475775223.0,BLIND,39.0,154.0,7.0 12.0
6482,7.0,668237.0,2.5,39.0,low,high-low,12.0,rod_fixing,rod_fixing,1.0,121.21500005014241,1554475775500.0,1554475775377.0,BLIND,39.0,134.0,7.0 12.0
6775,11.0,668237.0,1.2,39.0,low,high-low,12.0,rod_fixing,rod_fixing,1.0,936.9599999627098,1554475827456.0,1554475826518.0,BLIND,39.0,950.0,11.0 12.0
6776,11.0,668237.0,1.2,39.0,low,high-low,12.0,rod_fixing,rod_fixing,1.0,133.5500000277534,1554475827603.0,1554475827468.0,BLIND,39.0,150.0,11.0 12.0
6777,11.0,668237.0,1.2,39.0,low,high-low,12.0,rod_fixing,rod_fixing,1.0,144.92000004975125,1554475827764.0,1554475827618.0,BLIND,39.0,162.0,11.0 12.0
6778,11.0,668237.0,1.2,39.0,low,high-low,12.0,rod_fixing,rod_fixing,1.0,134.39500000094995,1554475827915.0,1554475827780.0,BLIND,39.0,152.0,11.0 12.0
6779,11.0,668237.0,1.2,39.0,low,high-low,12.0,rod_fixing,rod_fixing,1.0,143.64000002387908,1554475828076.0,1554475827932.0,BLIND,39.0,158.0,11.0 12.0
6780,11.0,668237.0,1.2,39.0,low,high-low,12.0,rod_fixing,rod_fixing,1.0,141.91999996546656,1554475828234.0,1554475828090.0,BLIND,39.0,158.0,11.0 12.0
7441,8.0,668237.0,0.3,39.0,low,high-low,22.0,rod_fixing,rod_fixing,1.0,948.9649999886752,1554475950997.0,1554475950047.0,BLIND,39.0,965.0,8.0 22.0
7442,8.0,668237.0,0.3,39.0,low,high-low,22.0,rod_fixing,rod_fixing,1.0,161.68000001925975,1554475951175.0,1554475951012.0,BLIND,39.0,180.0,8.0 22.0
7443,8.0,668237.0,0.3,39.0,low,high-low,22.0,rod_fixing,rod_fixing,1.0,207.53499999409541,1554475951401.0,1554475951192.0,BLIND,39.0,225.0,8.0 22.0
7444,8.0,668237.0,0.3,39.0,low,high-low,22.0,rod_fixing,rod_fixing,1.0,204.78500000899655,1554475951622.0,1554475951417.0,BLIND,39.0,224.0,8.0 22.0
7445,8.0,668237.0,0.3,39.0,low,high-low,22.0,rod_fixing,rod_fixing,1.0,181.54000001959503,1554475951823.0,1554475951641.0,BLIND,39.0,202.0,8.0 22.0
7446,8.0,668237.0,0.3,39.0,low,high-low,22.0,rod_fixing,rod_fixing,1.0,174.49499998474494,1554475952019.0,1554475951843.0,BLIND,39.0,187.0,8.0 22.0
7447,8.0,668237.0,0.3,39.0,low,high-low,22.0,rod_fixing,rod_fixing,1.0,195.77500002924356,1554475952227.0,1554475952030.0,BLIND,39.0,213.0,8.0 22.0
7628,11.0,668237.0,1.8,39.0,low,high-low,22.0,rod_fixing,rod_fixing,1.0,898.6949999816716,1554475990264.0,1554475989365.0,BLIND,39.0,915.0,11.0 22.0
7629,11.0,668237.0,1.8,39.0,low,high-low,22.0,rod_fixing,rod_fixing,1.0,170.73000001255426,1554475990452.0,1554475990280.0,BLIND,39.0,188.0,11.0 22.0
7630,11.0,668237.0,1.8,39.0,low,high-low,22.0,rod_fixing,rod_fixing,1.0,128.41000000480562,1554475990598.0,1554475990468.0,BLIND,39.0,144.0,11.0 22.0
7631,11.0,668237.0,1.8,39.0,low,high-low,22.0,rod_fixing,rod_fixing,1.0,153.64000003319234,1554475990767.0,1554475990612.0,BLIND,39.0,170.0,11.0 22.0
7632,11.0,668237.0,1.8,39.0,low,high-low,22.0,rod_fixing,rod_fixing,1.0,145.79500001855197,1554475990929.0,1554475990782.0,BLIND,39.0,166.0,11.0 22.0
7633,11.0,668237.0,1.8,39.0,low,high-low,22.0,rod_fixing,rod_fixing,1.0,152.8800000087358,1554475991102.0,1554475990948.0,BLIND,39.0,175.0,11.0 22.0
7975,3.0,668246.0,2.5,39.0,high,high-low,11.0,rod_fixing,rod_fixing,1.0,911.4150000095833,1554475572768.0,1554475571855.0,BLIND,39.0,919.0,3.0 11.0
7976,3.0,668246.0,2.5,39.0,high,high-low,11.0,rod_fixing,rod_fixing,1.0,128.1250000174623,1554475572903.0,1554475572774.0,BLIND,39.0,132.0,3.0 11.0
7977,3.0,668246.0,2.5,39.0,high,high-low,11.0,rod_fixing,rod_fixing,1.0,132.55999999819323,1554475573039.0,1554475572906.0,BLIND,39.0,135.0,3.0 11.0
7978,3.0,668246.0,2.5,39.0,high,high-low,11.0,rod_fixing,rod_fixing,1.0,141.14500000141558,1554475573183.0,1554475573041.0,BLIND,39.0,144.0,3.0 11.0
7979,3.0,668246.0,2.5,39.0,high,high-low,11.0,rod_fixing,rod_fixing,1.0,141.01500000106168,1554475573327.0,1554475573185.0,BLIND,39.0,145.0,3.0 11.0
7980,3.0,668246.0,2.5,39.0,high,high-low,11.0,rod_fixing,rod_fixing,1.0,140.28000002144836,1554475573471.0,1554475573330.0,BLIND,39.0,143.0,3.0 11.0
7981,3.0,668246.0,2.5,39.0,high,high-low,11.0,rod_fixing,rod_fixing,1.0,133.15000000875443,1554475573607.0,1554475573473.0,BLIND,39.0,136.0,3.0 11.0
8316,7.0,668246.0,1.2,39.0,high,high-low,11.0,rod_fixing,rod_fixing,1.0,457.47999998275185,1554475624686.0,1554475624227.0,BLIND,39.0,463.0,7.0 11.0
8317,7.0,668246.0,1.2,39.0,high,high-low,11.0,rod_fixing,rod_fixing,1.0,145.98000000114553,1554475624838.0,1554475624690.0,BLIND,39.0,150.0,7.0 11.0
8318,7.0,668246.0,1.2,39.0,high,high-low,11.0,rod_fixing,rod_fixing,1.0,141.28499999060298,1554475624982.0,1554475624840.0,BLIND,39.0,144.0,7.0 11.0
8319,7.0,668246.0,1.2,39.0,high,high-low,11.0,rod_fixing,rod_fixing,1.0,149.23999999882653,1554475625134.0,1554475624984.0,BLIND,39.0,152.0,7.0 11.0
8320,7.0,668246.0,1.2,39.0,high,high-low,11.0,rod_fixing,rod_fixing,1.0,132.76500001666136,1554475625269.0,1554475625136.0,BLIND,39.0,136.0,7.0 11.0
8321,7.0,668246.0,1.2,39.0,high,high-low,11.0,rod_fixing,rod_fixing,1.0,132.94500001939014,1554475625406.0,1554475625272.0,BLIND,39.0,136.0,7.0 11.0
8639,11.0,668246.0,0.3,39.0,high,high-low,11.0,rod_fixing,rod_fixing,1.0,410.4600000136997,1554475676943.0,1554475676532.0,BLIND,39.0,415.0,11.0 11.0
8640,11.0,668246.0,0.3,39.0,high,high-low,11.0,rod_fixing,rod_fixing,1.0,139.3099999986589,1554475677087.0,1554475676947.0,BLIND,39.0,143.0,11.0 11.0
8641,11.0,668246.0,0.3,39.0,high,high-low,11.0,rod_fixing,rod_fixing,1.0,141.52000000467527,1554475677232.0,1554475677090.0,BLIND,39.0,144.0,11.0 11.0
8642,11.0,668246.0,0.3,39.0,high,high-low,11.0,rod_fixing,rod_fixing,1.0,128.0900000128895,1554475677363.0,1554475677234.0,BLIND,39.0,132.0,11.0 11.0
8643,11.0,668246.0,0.3,39.0,high,high-low,11.0,rod_fixing,rod_fixing,1.0,145.17499998328276,1554475677512.0,1554475677366.0,BLIND,39.0,148.0,11.0 11.0
8644,11.0,668246.0,0.3,39.0,high,high-low,11.0,rod_fixing,rod_fixing,1.0,133.60000000102443,1554475677649.0,1554475677514.0,BLIND,39.0,138.0,11.0 11.0
9062,4.0,668246.0,1.8,39.0,high,high-low,21.0,rod_fixing,rod_fixing,1.0,591.6699999943377,1554475759820.0,1554475759228.0,BLIND,39.0,598.0,4.0 21.0
9063,4.0,668246.0,1.8,39.0,high,high-low,21.0,rod_fixing,rod_fixing,1.0,153.3449999988079,1554475759980.0,1554475759826.0,BLIND,39.0,159.0,4.0 21.0
9064,4.0,668246.0,1.8,39.0,high,high-low,21.0,rod_fixing,rod_fixing,1.0,131.33999999263324,1554475760117.0,1554475759985.0,BLIND,39.0,136.0,4.0 21.0
9065,4.0,668246.0,1.8,39.0,high,high-low,21.0,rod_fixing,rod_fixing,1.0,139.85999999567866,1554475760262.0,1554475760121.0,BLIND,39.0,145.0,4.0 21.0
9066,4.0,668246.0,1.8,39.0,high,high-low,21.0,rod_fixing,rod_fixing,1.0,138.3050000004005,1554475760404.0,1554475760266.0,BLIND,39.0,142.0,4.0 21.0
9067,4.0,668246.0,1.8,39.0,high,high-low,21.0,rod_fixing,rod_fixing,1.0,148.01500001340173,1554475760556.0,1554475760408.0,BLIND,39.0,153.0,4.0 21.0
9068,4.0,668246.0,1.8,39.0,high,high-low,21.0,rod_fixing,rod_fixing,1.0,146.81999999447726,1554475760708.0,1554475760561.0,BLIND,39.0,151.0,4.0 21.0
9384,8.0,668246.0,0.3,39.0,high,high-low,21.0,rod_fixing,rod_fixing,1.0,493.0199999944307,1554475812151.0,1554475811657.0,BLIND,39.0,496.0,8.0 21.0
9385,8.0,668246.0,0.3,39.0,high,high-low,21.0,rod_fixing,rod_fixing,1.0,150.1200000056997,1554475812303.0,1554475812153.0,BLIND,39.0,154.0,8.0 21.0
9386,8.0,668246.0,0.3,39.0,high,high-low,21.0,rod_fixing,rod_fixing,1.0,123.04999999469145,1554475812431.0,1554475812307.0,BLIND,39.0,129.0,8.0 21.0
9387,8.0,668246.0,0.3,39.0,high,high-low,21.0,rod_fixing,rod_fixing,1.0,130.21000000298955,1554475812567.0,1554475812436.0,BLIND,39.0,135.0,8.0 21.0
9388,8.0,668246.0,0.3,39.0,high,high-low,21.0,rod_fixing,rod_fixing,1.0,155.880000005709,1554475812727.0,1554475812571.0,BLIND,39.0,160.0,8.0 21.0
9929,3.0,668246.0,2.5,39.0,low,high-low,12.0,rod_fixing,rod_fixing,1.0,567.6199999870732,1554475937636.0,1554475937066.0,BLIND,39.0,576.0,3.0 12.0
9930,3.0,668246.0,2.5,39.0,low,high-low,12.0,rod_fixing,rod_fixing,1.0,161.56999999657273,1554475937805.0,1554475937642.0,BLIND,39.0,168.0,3.0 12.0
9931,3.0,668246.0,2.5,39.0,low,high-low,12.0,rod_fixing,rod_fixing,1.0,153.09000000706874,1554475937963.0,1554475937810.0,BLIND,39.0,158.0,3.0 12.0
9932,3.0,668246.0,2.5,39.0,low,high-low,12.0,rod_fixing,rod_fixing,1.0,187.1450000035111,1554475938155.0,1554475937968.0,BLIND,39.0,192.0,3.0 12.0
9933,3.0,668246.0,2.5,39.0,low,high-low,12.0,rod_fixing,rod_fixing,1.0,154.99999999883585,1554475938315.0,1554475938160.0,BLIND,39.0,161.0,3.0 12.0
9934,3.0,668246.0,2.5,39.0,low,high-low,12.0,rod_fixing,rod_fixing,1.0,169.7449999919627,1554475938491.0,1554475938321.0,BLIND,39.0,178.0,3.0 12.0
10226,7.0,668246.0,1.2,39.0,low,high-low,12.0,rod_fixing,rod_fixing,1.0,524.5799999975134,1554475989927.0,1554475989401.0,BLIND,39.0,536.0,7.0 12.0
10227,7.0,668246.0,1.2,39.0,low,high-low,12.0,rod_fixing,rod_fixing,1.0,147.94500000425614,1554475990085.0,1554475989937.0,BLIND,39.0,151.0,7.0 12.0
10228,7.0,668246.0,1.2,39.0,low,high-low,12.0,rod_fixing,rod_fixing,1.0,134.2000000004191,1554475990223.0,1554475990088.0,BLIND,39.0,139.0,7.0 12.0
10229,7.0,668246.0,1.2,39.0,low,high-low,12.0,rod_fixing,rod_fixing,1.0,178.36999997962266,1554475990406.0,1554475990227.0,BLIND,39.0,190.0,7.0 12.0
10230,7.0,668246.0,1.2,39.0,low,high-low,12.0,rod_fixing,rod_fixing,1.0,149.17999997851442,1554475990567.0,1554475990417.0,BLIND,39.0,159.0,7.0 12.0
10231,7.0,668246.0,1.2,39.0,low,high-low,12.0,rod_fixing,rod_fixing,1.0,173.34999999729916,1554475990750.0,1554475990576.0,BLIND,39.0,178.0,7.0 12.0
10525,11.0,668246.0,0.3,39.0,low,high-low,12.0,rod_fixing,rod_fixing,1.0,661.7049999767913,1554476042261.0,1554476041598.0,BLIND,39.0,669.0,11.0 12.0
10526,11.0,668246.0,0.3,39.0,low,high-low,12.0,rod_fixing,rod_fixing,1.0,160.81000000122003,1554476042429.0,1554476042267.0,BLIND,39.0,167.0,11.0 12.0
10527,11.0,668246.0,0.3,39.0,low,high-low,12.0,rod_fixing,rod_fixing,1.0,186.20499997632575,1554476042621.0,1554476042434.0,BLIND,39.0,192.0,11.0 12.0
10528,11.0,668246.0,0.3,39.0,low,high-low,12.0,rod_fixing,rod_fixing,1.0,169.83500000787902,1554476042797.0,1554476042626.0,BLIND,39.0,179.0,11.0 12.0
10529,11.0,668246.0,0.3,39.0,low,high-low,12.0,rod_fixing,rod_fixing,1.0,190.86000000243075,1554476042997.0,1554476042805.0,BLIND,39.0,196.0,11.0 12.0
10530,11.0,668246.0,0.3,39.0,low,high-low,12.0,rod_fixing,rod_fixing,1.0,171.28500001854263,1554476043173.0,1554476043001.0,BLIND,39.0,177.0,11.0 12.0
10907,4.0,668246.0,1.8,39.0,low,high-low,22.0,rod_fixing,rod_fixing,1.0,520.4300000041259,1554476137009.0,1554476136488.0,BLIND,39.0,526.0,4.0 22.0
10908,4.0,668246.0,1.8,39.0,low,high-low,22.0,rod_fixing,rod_fixing,1.0,179.19500000425614,1554476137193.0,1554476137014.0,BLIND,39.0,184.0,4.0 22.0
10909,4.0,668246.0,1.8,39.0,low,high-low,22.0,rod_fixing,rod_fixing,1.0,162.1600000071339,1554476137361.0,1554476137198.0,BLIND,39.0,167.0,4.0 22.0
10910,4.0,668246.0,1.8,39.0,low,high-low,22.0,rod_fixing,rod_fixing,1.0,187.66499997582287,1554476137553.0,1554476137365.0,BLIND,39.0,195.0,4.0 22.0
10911,4.0,668246.0,1.8,39.0,low,high-low,22.0,rod_fixing,rod_fixing,1.0,168.25499999686144,1554476137729.0,1554476137560.0,BLIND,39.0,175.0,4.0 22.0
10912,4.0,668246.0,1.8,39.0,low,high-low,22.0,rod_fixing,rod_fixing,1.0,169.1149999969639,1554476137905.0,1554476137735.0,BLIND,39.0,175.0,4.0 22.0
11181,8.0,668246.0,0.3,39.0,low,high-low,22.0,rod_fixing,rod_fixing,1.0,533.4150000126101,1554476189411.0,1554476188877.0,BLIND,39.0,538.0,8.0 22.0
11182,8.0,668246.0,0.3,39.0,low,high-low,22.0,rod_fixing,rod_fixing,1.0,179.05999999493358,1554476189595.0,1554476189415.0,BLIND,39.0,183.0,8.0 22.0
11183,8.0,668246.0,0.3,39.0,low,high-low,22.0,rod_fixing,rod_fixing,1.0,188.2000000041444,1554476189787.0,1554476189598.0,BLIND,39.0,192.0,8.0 22.0
11184,8.0,668246.0,0.3,39.0,low,high-low,22.0,rod_fixing,rod_fixing,1.0,180.74000001070092,1554476189971.0,1554476189790.0,BLIND,39.0,185.0,8.0 22.0
11185,8.0,668246.0,0.3,39.0,low,high-low,22.0,rod_fixing,rod_fixing,1.0,187.43499999982305,1554476190163.0,1554476189975.0,BLIND,39.0,191.0,8.0 22.0
11186,8.0,668246.0,0.3,39.0,low,high-low,22.0,rod_fixing,rod_fixing,1.0,196.60000002477318,1554476190363.0,1554476190166.0,BLIND,39.0,200.0,8.0 22.0
11397,11.0,668246.0,2.5,39.0,low,high-low,22.0,rod_fixing,rod_fixing,1.0,464.4200000038836,1554476228590.0,1554476228125.0,BLIND,39.0,474.0,11.0 22.0
11398,11.0,668246.0,2.5,39.0,low,high-low,22.0,rod_fixing,rod_fixing,1.0,174.97500000172298,1554476228774.0,1554476228599.0,BLIND,39.0,181.0,11.0 22.0
11399,11.0,668246.0,2.5,39.0,low,high-low,22.0,rod_fixing,rod_fixing,1.0,162.175000004936,1554476228942.0,1554476228780.0,BLIND,39.0,168.0,11.0 22.0
11400,11.0,668246.0,2.5,39.0,low,high-low,22.0,rod_fixing,rod_fixing,1.0,185.18500000936908,1554476229134.0,1554476228948.0,BLIND,39.0,193.0,11.0 22.0
11401,11.0,668246.0,2.5,39.0,low,high-low,22.0,rod_fixing,rod_fixing,1.0,233.36000001290813,1554476229375.0,1554476229141.0,BLIND,39.0,241.0,11.0 22.0
11402,11.0,668246.0,2.5,39.0,low,high-low,22.0,rod_fixing,rod_fixing,1.0,160.51000001607463,1554476229543.0,1554476229382.0,BLIND,39.0,169.0,11.0 22.0
11738,3.0,668244.0,0.7,39.0,high,high-low,11.0,rod_fixing,rod_fixing,1.0,1206.0150001198053,1554475690049.0,1554475688843.0,BLIND,39.0,1208.0,3.0 11.0
11739,3.0,668244.0,0.7,39.0,high,high-low,11.0,rod_fixing,rod_fixing,1.0,101.6450000461191,1554475690153.0,1554475690051.0,BLIND,39.0,104.0,3.0 11.0
11740,3.0,668244.0,0.7,39.0,high,high-low,11.0,rod_fixing,rod_fixing,1.0,117.76499985717236,1554475690273.0,1554475690155.0,BLIND,39.0,120.0,3.0 11.0
11741,3.0,668244.0,0.7,39.0,high,high-low,11.0,rod_fixing,rod_fixing,1.0,118.17500018514693,1554475690393.0,1554475690275.0,BLIND,39.0,120.0,3.0 11.0
11742,3.0,668244.0,0.7,39.0,high,high-low,11.0,rod_fixing,rod_fixing,1.0,206.26999996602532,1554475690601.0,1554475690395.0,BLIND,39.0,208.0,3.0 11.0
11743,3.0,668244.0,0.7,39.0,high,high-low,11.0,rod_fixing,rod_fixing,1.0,101.80000006221235,1554475690705.0,1554475690603.0,BLIND,39.0,103.0,3.0 11.0
11744,3.0,668244.0,0.7,39.0,high,high-low,11.0,rod_fixing,rod_fixing,1.0,110.45499984174968,1554475690817.0,1554475690706.0,BLIND,39.0,112.0,3.0 11.0
12085,7.0,668244.0,2.5,39.0,high,high-low,11.0,rod_fixing,rod_fixing,1.0,950.8150001056492,1554475742153.0,1554475741202.0,BLIND,39.0,952.0,7.0 11.0
12086,7.0,668244.0,2.5,39.0,high,high-low,11.0,rod_fixing,rod_fixing,1.0,365.98000000230974,1554475742521.0,1554475742154.0,BLIND,39.0,369.0,7.0 11.0
12087,7.0,668244.0,2.5,39.0,high,high-low,11.0,rod_fixing,rod_fixing,1.0,101.4649998396635,1554475742625.0,1554475742523.0,BLIND,39.0,103.0,7.0 11.0
12088,7.0,668244.0,2.5,39.0,high,high-low,11.0,rod_fixing,rod_fixing,1.0,110.7149999588728,1554475742737.0,1554475742626.0,BLIND,39.0,112.0,7.0 11.0
12089,7.0,668244.0,2.5,39.0,high,high-low,11.0,rod_fixing,rod_fixing,1.0,102.56500006653368,1554475742840.0,1554475742738.0,BLIND,39.0,104.0,7.0 11.0
12090,7.0,668244.0,2.5,39.0,high,high-low,11.0,rod_fixing,rod_fixing,1.0,94.7300000116229,1554475742936.0,1554475742842.0,BLIND,39.0,96.0,7.0 11.0
12394,11.0,668244.0,0.7,39.0,high,high-low,11.0,rod_fixing,rod_fixing,1.0,1243.9599998760968,1554475794783.0,1554475793539.0,BLIND,39.0,1246.0,11.0 11.0
12395,11.0,668244.0,0.7,39.0,high,high-low,11.0,rod_fixing,rod_fixing,1.0,94.34500010684131,1554475794880.0,1554475794785.0,BLIND,39.0,97.0,11.0 11.0
12396,11.0,668244.0,0.7,39.0,high,high-low,11.0,rod_fixing,rod_fixing,1.0,116.95499997586012,1554475795000.0,1554475794882.0,BLIND,39.0,120.0,11.0 11.0
12397,11.0,668244.0,0.7,39.0,high,high-low,11.0,rod_fixing,rod_fixing,1.0,101.65999992750584,1554475795104.0,1554475795002.0,BLIND,39.0,104.0,11.0 11.0
12398,11.0,668244.0,0.7,39.0,high,high-low,11.0,rod_fixing,rod_fixing,1.0,109.31999981403351,1554475795216.0,1554475795106.0,BLIND,39.0,112.0,11.0 11.0
12399,11.0,668244.0,0.7,39.0,high,high-low,11.0,rod_fixing,rod_fixing,1.0,109.70999998971821,1554475795328.0,1554475795218.0,BLIND,39.0,112.0,11.0 11.0
12746,4.0,668244.0,0.7,39.0,high,high-low,21.0,rod_fixing,rod_fixing,1.0,2195.6350000109524,1554475992799.0,1554475990603.0,BLIND,39.0,2198.0,4.0 21.0
12747,4.0,668244.0,0.7,39.0,high,high-low,21.0,rod_fixing,rod_fixing,1.0,245.54999987594783,1554475993047.0,1554475992801.0,BLIND,39.0,248.0,4.0 21.0
12748,4.0,668244.0,0.7,39.0,high,high-low,21.0,rod_fixing,rod_fixing,1.0,109.41000003367662,1554475993159.0,1554475993049.0,BLIND,39.0,113.0,4.0 21.0
12749,4.0,668244.0,0.7,39.0,high,high-low,21.0,rod_fixing,rod_fixing,1.0,116.89499998465179,1554475993279.0,1554475993162.0,BLIND,39.0,119.0,4.0 21.0
12750,4.0,668244.0,0.7,39.0,high,high-low,21.0,rod_fixing,rod_fixing,1.0,125.46499981544912,1554475993407.0,1554475993281.0,BLIND,39.0,128.0,4.0 21.0
12751,4.0,668244.0,0.7,39.0,high,high-low,21.0,rod_fixing,rod_fixing,1.0,245.51500007510185,1554475993655.0,1554475993409.0,BLIND,39.0,248.0,4.0 21.0
12752,4.0,668244.0,0.7,39.0,high,high-low,21.0,rod_fixing,rod_fixing,1.0,165.01499991863966,1554475993823.0,1554475993657.0,BLIND,39.0,168.0,4.0 21.0
13029,8.0,668244.0,0.1,39.0,high,high-low,21.0,rod_fixing,rod_fixing,1.0,834.1300000902264,1554476043799.0,1554476042964.0,BLIND,39.0,837.0,8.0 21.0
13030,8.0,668244.0,0.1,39.0,high,high-low,21.0,rod_fixing,rod_fixing,1.0,221.5799998957664,1554476044023.0,1554476043801.0,BLIND,39.0,224.0,8.0 21.0
13031,8.0,668244.0,0.1,39.0,high,high-low,21.0,rod_fixing,rod_fixing,1.0,85.54999995976685,1554476044111.0,1554476044025.0,BLIND,39.0,88.0,8.0 21.0
13032,8.0,668244.0,0.1,39.0,high,high-low,21.0,rod_fixing,rod_fixing,1.0,110.09499989449978,1554476044223.0,1554476044113.0,BLIND,39.0,112.0,8.0 21.0
13033,8.0,668244.0,0.1,39.0,high,high-low,21.0,rod_fixing,rod_fixing,1.0,101.77999990992248,1554476044327.0,1554476044225.0,BLIND,39.0,104.0,8.0 21.0
13034,8.0,668244.0,0.1,39.0,high,high-low,21.0,rod_fixing,rod_fixing,1.0,102.03999979421495,1554476044431.0,1554476044329.0,BLIND,39.0,104.0,8.0 21.0
13266,11.0,668244.0,0.7,39.0,high,high-low,21.0,rod_fixing,rod_fixing,1.0,672.5549998227508,1554476082943.0,1554476082270.0,BLIND,39.0,675.0,11.0 21.0
13267,11.0,668244.0,0.7,39.0,high,high-low,21.0,rod_fixing,rod_fixing,1.0,485.0950001273304,1554476083431.0,1554476082945.0,BLIND,39.0,488.0,11.0 21.0
13268,11.0,668244.0,0.7,39.0,high,high-low,21.0,rod_fixing,rod_fixing,1.0,148.73500005342066,1554476083582.0,1554476083433.0,BLIND,39.0,151.0,11.0 21.0
13269,11.0,668244.0,0.7,39.0,high,high-low,21.0,rod_fixing,rod_fixing,1.0,102.174999890849,1554476083686.0,1554476083584.0,BLIND,39.0,104.0,11.0 21.0
13270,11.0,668244.0,0.7,39.0,high,high-low,21.0,rod_fixing,rod_fixing,1.0,141.88500004820523,1554476083830.0,1554476083688.0,BLIND,39.0,144.0,11.0 21.0
13271,11.0,668244.0,0.7,39.0,high,high-low,21.0,rod_fixing,rod_fixing,1.0,110.1699999999255,1554476083943.0,1554476083832.0,BLIND,39.0,113.0,11.0 21.0
13272,11.0,668244.0,0.7,39.0,high,high-low,21.0,rod_fixing,rod_fixing,1.0,140.70000010542572,1554476084086.0,1554476083945.0,BLIND,39.0,144.0,11.0 21.0
13554,3.0,668244.0,0.7,39.0,low,high-low,12.0,rod_fixing,rod_fixing,1.0,1121.3299999944868,1554476590349.0,1554476589227.0,BLIND,39.0,1125.0,3.0 12.0
13555,3.0,668244.0,0.7,39.0,low,high-low,12.0,rod_fixing,rod_fixing,1.0,164.28999998606741,1554476590517.0,1554476590352.0,BLIND,39.0,168.0,3.0 12.0
13556,3.0,668244.0,0.7,39.0,low,high-low,12.0,rod_fixing,rod_fixing,1.0,141.03500009514391,1554476590661.0,1554476590520.0,BLIND,39.0,144.0,3.0 12.0
13557,3.0,668244.0,0.7,39.0,low,high-low,12.0,rod_fixing,rod_fixing,1.0,156.71999985352159,1554476590821.0,1554476590664.0,BLIND,39.0,160.0,3.0 12.0
13558,3.0,668244.0,0.7,39.0,low,high-low,12.0,rod_fixing,rod_fixing,1.0,117.70499986596407,1554476590942.0,1554476590824.0,BLIND,39.0,120.0,3.0 12.0
13559,3.0,668244.0,0.7,39.0,low,high-low,12.0,rod_fixing,rod_fixing,1.0,140.2900000102818,1554476591085.0,1554476590944.0,BLIND,39.0,143.0,3.0 12.0
13560,3.0,668244.0,0.7,39.0,low,high-low,12.0,rod_fixing,rod_fixing,1.0,141.30500005558133,1554476591229.0,1554476591087.0,BLIND,39.0,145.0,3.0 12.0
13833,7.0,668244.0,2.5,39.0,low,high-low,12.0,rod_fixing,rod_fixing,1.0,1123.704999918118,1554476642693.0,1554476641569.0,BLIND,39.0,1126.0,7.0 12.0
13834,7.0,668244.0,2.5,39.0,low,high-low,12.0,rod_fixing,rod_fixing,1.0,172.78000013902786,1554476642868.0,1554476642695.0,BLIND,39.0,177.0,7.0 12.0
13835,7.0,668244.0,2.5,39.0,low,high-low,12.0,rod_fixing,rod_fixing,1.0,284.53999990597373,1554476643156.0,1554476642872.0,BLIND,39.0,288.0,7.0 12.0
13836,7.0,668244.0,2.5,39.0,low,high-low,12.0,rod_fixing,rod_fixing,1.0,155.70000000298026,1554476643316.0,1554476643160.0,BLIND,39.0,159.0,7.0 12.0
13837,7.0,668244.0,2.5,39.0,low,high-low,12.0,rod_fixing,rod_fixing,1.0,269.73499986343086,1554476643589.0,1554476643319.0,BLIND,39.0,272.0,7.0 12.0
13838,7.0,668244.0,2.5,39.0,low,high-low,12.0,rod_fixing,rod_fixing,1.0,165.4699998907745,1554476643757.0,1554476643591.0,BLIND,39.0,169.0,7.0 12.0
13839,7.0,668244.0,2.5,39.0,low,high-low,12.0,rod_fixing,rod_fixing,1.0,196.80500007234517,1554476643957.0,1554476643760.0,BLIND,39.0,199.0,7.0 12.0
14135,11.0,668244.0,0.7,39.0,low,high-low,12.0,rod_fixing,rod_fixing,1.0,1307.3350000195205,1554476695213.0,1554476693905.0,BLIND,39.0,1311.0,11.0 12.0
14136,11.0,668244.0,0.7,39.0,low,high-low,12.0,rod_fixing,rod_fixing,1.0,156.71999985352159,1554476695373.0,1554476695216.0,BLIND,39.0,160.0,11.0 12.0
14137,11.0,668244.0,0.7,39.0,low,high-low,12.0,rod_fixing,rod_fixing,1.0,124.8749999795109,1554476695501.0,1554476695376.0,BLIND,39.0,128.0,11.0 12.0
14138,11.0,668244.0,0.7,39.0,low,high-low,12.0,rod_fixing,rod_fixing,1.0,148.78499996848404,1554476695653.0,1554476695504.0,BLIND,39.0,153.0,11.0 12.0
14139,11.0,668244.0,0.7,39.0,low,high-low,12.0,rod_fixing,rod_fixing,1.0,124.04999998398122,1554476695781.0,1554476695657.0,BLIND,39.0,127.0,11.0 12.0
14140,11.0,668244.0,0.7,39.0,low,high-low,12.0,rod_fixing,rod_fixing,1.0,140.59500000439584,1554476695925.0,1554476695784.0,BLIND,39.0,144.0,11.0 12.0
14141,11.0,668244.0,0.7,39.0,low,high-low,12.0,rod_fixing,rod_fixing,1.0,124.55000006593764,1554476696053.0,1554476695928.0,BLIND,39.0,128.0,11.0 12.0
14502,4.0,668244.0,0.7,39.0,low,high-low,22.0,rod_fixing,rod_fixing,1.0,1233.574999962002,1554476969629.0,1554476968395.0,BLIND,39.0,1237.0,4.0 22.0
14503,4.0,668244.0,0.7,39.0,low,high-low,22.0,rod_fixing,rod_fixing,1.0,156.48499992676082,1554476969789.0,1554476969632.0,BLIND,39.0,159.0,4.0 22.0
14504,4.0,668244.0,0.7,39.0,low,high-low,22.0,rod_fixing,rod_fixing,1.0,116.96500005200504,1554476969909.0,1554476969791.0,BLIND,39.0,120.0,4.0 22.0
14505,4.0,668244.0,0.7,39.0,low,high-low,22.0,rod_fixing,rod_fixing,1.0,189.78999997489154,1554476970101.0,1554476969911.0,BLIND,39.0,193.0,4.0 22.0
14506,4.0,668244.0,0.7,39.0,low,high-low,22.0,rod_fixing,rod_fixing,1.0,76.12000009976327,1554476970181.0,1554476970104.0,BLIND,39.0,79.0,4.0 22.0
14507,4.0,668244.0,0.7,39.0,low,high-low,22.0,rod_fixing,rod_fixing,1.0,117.2850001603365,1554476970301.0,1554476970183.0,BLIND,39.0,120.0,4.0 22.0
14508,4.0,668244.0,0.7,39.0,low,high-low,22.0,rod_fixing,rod_fixing,1.0,85.13500005938113,1554476970388.0,1554476970303.0,BLIND,39.0,89.0,4.0 22.0
14852,8.0,668244.0,0.1,39.0,low,high-low,22.0,rod_fixing,rod_fixing,1.0,627.5399997830391,1554477021252.0,1554477020624.0,BLIND,39.0,631.0,8.0 22.0
14853,8.0,668244.0,0.1,39.0,low,high-low,22.0,rod_fixing,rod_fixing,1.0,133.0150000285357,1554477021388.0,1554477021255.0,BLIND,39.0,137.0,8.0 22.0
15074,11.0,668244.0,0.7,39.0,low,high-low,22.0,rod_fixing,rod_fixing,1.0,725.2150001004338,1554477060548.0,1554477059823.0,BLIND,39.0,728.0,11.0 22.0
15075,11.0,668244.0,0.7,39.0,low,high-low,22.0,rod_fixing,rod_fixing,1.0,229.30500004440543,1554477060781.0,1554477060551.0,BLIND,39.0,233.0,11.0 22.0
15076,11.0,668244.0,0.7,39.0,low,high-low,22.0,rod_fixing,rod_fixing,1.0,115.48999999649824,1554477060900.0,1554477060784.0,BLIND,39.0,121.0,11.0 22.0
15077,11.0,668244.0,0.7,39.0,low,high-low,22.0,rod_fixing,rod_fixing,1.0,106.55000014230608,1554477061012.0,1554477060905.0,BLIND,39.0,111.0,11.0 22.0
15078,11.0,668244.0,0.7,39.0,low,high-low,22.0,rod_fixing,rod_fixing,1.0,116.22500000521539,1554477061132.0,1554477061016.0,BLIND,39.0,119.0,11.0 22.0
15079,11.0,668244.0,0.7,39.0,low,high-low,22.0,rod_fixing,rod_fixing,1.0,109.11999992094934,1554477061244.0,1554477061135.0,BLIND,39.0,112.0,11.0 22.0
15080,11.0,668244.0,0.7,39.0,low,high-low,22.0,rod_fixing,rod_fixing,1.0,116.96500005200504,1554477061364.0,1554477061247.0,BLIND,39.0,121.0,11.0 22.0
15384,3.0,668251.0,0.7,39.0,high,high-low,11.0,rod_fixing,rod_fixing,1.0,1306.0000000004948,1554475738637.0,1554475737330.0,BLIND,39.0,1311.0,3.0 11.0
15385,3.0,668251.0,0.7,39.0,high,high-low,11.0,rod_fixing,rod_fixing,1.0,165.37500000049474,1554475738807.0,1554475738641.0,BLIND,39.0,169.0,3.0 11.0
15386,3.0,668251.0,0.7,39.0,high,high-low,11.0,rod_fixing,rod_fixing,1.0,170.39499999737018,1554475738981.0,1554475738810.0,BLIND,39.0,173.0,3.0 11.0
15387,3.0,668251.0,0.7,39.0,high,high-low,11.0,rod_fixing,rod_fixing,1.0,164.86000000077183,1554475739149.0,1554475738983.0,BLIND,39.0,167.0,3.0 11.0
15388,3.0,668251.0,0.7,39.0,high,high-low,11.0,rod_fixing,rod_fixing,1.0,158.4350000011909,1554475739309.0,1554475739150.0,BLIND,39.0,162.0,3.0 11.0
15389,3.0,668251.0,0.7,39.0,high,high-low,11.0,rod_fixing,rod_fixing,1.0,164.3900000017311,1554475739477.0,1554475739312.0,BLIND,39.0,168.0,3.0 11.0
15390,3.0,668251.0,0.7,39.0,high,high-low,11.0,rod_fixing,rod_fixing,1.0,163.23499999998603,1554475739645.0,1554475739480.0,BLIND,39.0,168.0,3.0 11.0
15622,7.0,668251.0,2.5,39.0,high,high-low,11.0,rod_fixing,rod_fixing,1.0,884.4799999969838,1554475790542.0,1554475789657.0,BLIND,39.0,889.0,7.0 11.0
15623,7.0,668251.0,2.5,39.0,high,high-low,11.0,rod_fixing,rod_fixing,1.0,179.33500000071945,1554475790726.0,1554475790546.0,BLIND,39.0,183.0,7.0 11.0
15624,7.0,668251.0,2.5,39.0,high,high-low,11.0,rod_fixing,rod_fixing,1.0,196.02999999915482,1554475790926.0,1554475790729.0,BLIND,39.0,203.0,7.0 11.0
15625,7.0,668251.0,2.5,39.0,high,high-low,11.0,rod_fixing,rod_fixing,1.0,177.9199999982666,1554475791110.0,1554475790932.0,BLIND,39.0,182.0,7.0 11.0
15626,7.0,668251.0,2.5,39.0,high,high-low,11.0,rod_fixing,rod_fixing,1.0,147.89499999824332,1554475791262.0,1554475791114.0,BLIND,39.0,150.0,7.0 11.0
15627,7.0,668251.0,2.5,39.0,high,high-low,11.0,rod_fixing,rod_fixing,1.0,165.4950000011013,1554475791430.0,1554475791264.0,BLIND,39.0,169.0,7.0 11.0
15628,7.0,668251.0,2.5,39.0,high,high-low,11.0,rod_fixing,rod_fixing,1.0,173.27999999906748,1554475791607.0,1554475791433.0,BLIND,39.0,180.0,7.0 11.0
15853,11.0,668251.0,0.1,39.0,high,high-low,11.0,rod_fixing,rod_fixing,1.0,1384.1900000006715,1554475843367.0,1554475841983.0,BLIND,39.0,1388.0,11.0 11.0
15854,11.0,668251.0,0.1,39.0,high,high-low,11.0,rod_fixing,rod_fixing,1.0,148.19999999963332,1554475843519.0,1554475843371.0,BLIND,39.0,150.0,11.0 11.0
15855,11.0,668251.0,0.1,39.0,high,high-low,11.0,rod_fixing,rod_fixing,1.0,181.53000000165773,1554475843704.0,1554475843521.0,BLIND,39.0,185.0,11.0 11.0
15856,11.0,668251.0,0.1,39.0,high,high-low,11.0,rod_fixing,rod_fixing,1.0,156.75999999803025,1554475843863.0,1554475843706.0,BLIND,39.0,159.0,11.0 11.0
15857,11.0,668251.0,0.1,39.0,high,high-low,11.0,rod_fixing,rod_fixing,1.0,197.31500000125382,1554475844063.0,1554475843865.0,BLIND,39.0,200.0,11.0 11.0
15858,11.0,668251.0,0.1,39.0,high,high-low,11.0,rod_fixing,rod_fixing,1.0,173.6749999981839,1554475844240.0,1554475844065.0,BLIND,39.0,178.0,11.0 11.0
15859,11.0,668251.0,0.1,39.0,high,high-low,11.0,rod_fixing,rod_fixing,1.0,228.4749999998894,1554475844472.0,1554475844243.0,BLIND,39.0,233.0,11.0 11.0
16091,4.0,668251.0,2.5,39.0,high,high-low,21.0,rod_fixing,rod_fixing,1.0,1509.7749999986263,1554475944210.0,1554475942700.0,BLIND,39.0,1514.0,4.0 21.0
16092,4.0,668251.0,2.5,39.0,high,high-low,21.0,rod_fixing,rod_fixing,1.0,163.0799999984447,1554475944378.0,1554475944214.0,BLIND,39.0,168.0,4.0 21.0
16093,4.0,668251.0,2.5,39.0,high,high-low,21.0,rod_fixing,rod_fixing,1.0,163.68499999953198,1554475944546.0,1554475944382.0,BLIND,39.0,169.0,4.0 21.0
16094,4.0,668251.0,2.5,39.0,high,high-low,21.0,rod_fixing,rod_fixing,1.0,162.11499999917578,1554475944714.0,1554475944551.0,BLIND,39.0,167.0,4.0 21.0
16095,4.0,668251.0,2.5,39.0,high,high-low,21.0,rod_fixing,rod_fixing,1.0,139.33999999790103,1554475944858.0,1554475944718.0,BLIND,39.0,143.0,4.0 21.0
16096,4.0,668251.0,2.5,39.0,high,high-low,21.0,rod_fixing,rod_fixing,1.0,164.069999998901,1554475945026.0,1554475944861.0,BLIND,39.0,171.0,4.0 21.0
16097,4.0,668251.0,2.5,39.0,high,high-low,21.0,rod_fixing,rod_fixing,1.0,161.2749999985681,1554475945194.0,1554475945032.0,BLIND,39.0,165.0,4.0 21.0
16217,8.0,668251.0,0.7,39.0,high,high-low,21.0,rod_fixing,rod_fixing,1.0,1399.045000001963,1554475996451.0,1554475995051.0,BLIND,39.0,1404.0,8.0 21.0
16218,8.0,668251.0,0.7,39.0,high,high-low,21.0,rod_fixing,rod_fixing,1.0,179.6749999994645,1554475996635.0,1554475996455.0,BLIND,39.0,184.0,8.0 21.0
16219,8.0,668251.0,0.7,39.0,high,high-low,21.0,rod_fixing,rod_fixing,1.0,148.0699999993085,1554475996788.0,1554475996639.0,BLIND,39.0,153.0,8.0 21.0
16220,8.0,668251.0,0.7,39.0,high,high-low,21.0,rod_fixing,rod_fixing,1.0,155.17499999987194,1554475996947.0,1554475996792.0,BLIND,39.0,160.0,8.0 21.0
16221,8.0,668251.0,0.7,39.0,high,high-low,21.0,rod_fixing,rod_fixing,1.0,138.1550000005518,1554475997091.0,1554475996952.0,BLIND,39.0,143.0,8.0 21.0
16348,11.0,668251.0,2.5,39.0,high,high-low,21.0,rod_fixing,rod_fixing,1.0,894.2849999985193,1554476035292.0,1554476034397.0,BLIND,39.0,899.0,11.0 21.0
16349,11.0,668251.0,2.5,39.0,high,high-low,21.0,rod_fixing,rod_fixing,1.0,195.72499999776485,1554476035492.0,1554476035296.0,BLIND,39.0,202.0,11.0 21.0
16350,11.0,668251.0,2.5,39.0,high,high-low,21.0,rod_fixing,rod_fixing,1.0,161.53499999927593,1554476035660.0,1554476035498.0,BLIND,39.0,166.0,11.0 21.0
16351,11.0,668251.0,2.5,39.0,high,high-low,21.0,rod_fixing,rod_fixing,1.0,163.41000000102213,1554476035828.0,1554476035664.0,BLIND,39.0,169.0,11.0 21.0
16352,11.0,668251.0,2.5,39.0,high,high-low,21.0,rod_fixing,rod_fixing,1.0,162.18999999912918,1554476035996.0,1554476035833.0,BLIND,39.0,167.0,11.0 21.0
16353,11.0,668251.0,2.5,39.0,high,high-low,21.0,rod_fixing,rod_fixing,1.0,171.36499999830266,1554476036172.0,1554476036000.0,BLIND,39.0,176.0,11.0 21.0
16354,11.0,668251.0,2.5,39.0,high,high-low,21.0,rod_fixing,rod_fixing,1.0,156.43000000272878,1554476036333.0,1554476036176.0,BLIND,39.0,164.0,11.0 21.0
16516,3.0,668251.0,0.7,39.0,low,high-low,12.0,rod_fixing,rod_fixing,1.0,2764.085000002524,1554476215513.0,1554476212748.0,BLIND,39.0,2769.0,3.0 12.0
16517,3.0,668251.0,0.7,39.0,low,high-low,12.0,rod_fixing,rod_fixing,1.0,146.5599999973783,1554476215664.0,1554476215517.0,BLIND,39.0,152.0,3.0 12.0
16518,3.0,668251.0,0.7,39.0,low,high-low,12.0,rod_fixing,rod_fixing,1.0,154.660000000149,1554476215824.0,1554476215669.0,BLIND,39.0,160.0,3.0 12.0
16519,3.0,668251.0,0.7,39.0,low,high-low,12.0,rod_fixing,rod_fixing,1.0,146.89999999967404,1554476215976.0,1554476215829.0,BLIND,39.0,152.0,3.0 12.0
16520,3.0,668251.0,0.7,39.0,low,high-low,12.0,rod_fixing,rod_fixing,1.0,138.93499999900814,1554476216120.0,1554476215981.0,BLIND,39.0,144.0,3.0 12.0
16521,3.0,668251.0,0.7,39.0,low,high-low,12.0,rod_fixing,rod_fixing,1.0,146.97499999962747,1554476216272.0,1554476216125.0,BLIND,39.0,152.0,3.0 12.0
16522,3.0,668251.0,0.7,39.0,low,high-low,12.0,rod_fixing,rod_fixing,1.0,139.1250000015134,1554476216416.0,1554476216277.0,BLIND,39.0,144.0,3.0 12.0
16764,4.0,668251.0,2.5,39.0,low,high-low,22.0,rod_fixing,rod_fixing,1.0,2251.1699999995762,1554476464991.0,1554476462739.0,BLIND,39.0,2257.0,4.0 22.0
16765,4.0,668251.0,2.5,39.0,low,high-low,22.0,rod_fixing,rod_fixing,1.0,194.0099999991944,1554476465190.0,1554476464996.0,BLIND,39.0,199.0,4.0 22.0
16766,4.0,668251.0,2.5,39.0,low,high-low,22.0,rod_fixing,rod_fixing,1.0,186.47000000055414,1554476465382.0,1554476465195.0,BLIND,39.0,192.0,4.0 22.0
16767,4.0,668251.0,2.5,39.0,low,high-low,22.0,rod_fixing,rod_fixing,1.0,186.9699999988079,1554476465575.0,1554476465387.0,BLIND,39.0,194.0,4.0 22.0
16768,4.0,668251.0,2.5,39.0,low,high-low,22.0,rod_fixing,rod_fixing,1.0,185.03499999863558,1554476465766.0,1554476465581.0,BLIND,39.0,190.0,4.0 22.0
16769,4.0,668251.0,2.5,39.0,low,high-low,22.0,rod_fixing,rod_fixing,1.0,186.7599999968661,1554476465958.0,1554476465771.0,BLIND,39.0,194.0,4.0 22.0
16770,4.0,668251.0,2.5,39.0,low,high-low,22.0,rod_fixing,rod_fixing,1.0,184.35500000126197,1554476466150.0,1554476465965.0,BLIND,39.0,190.0,4.0 22.0
16834,8.0,668251.0,0.7,39.0,low,high-low,22.0,rod_fixing,rod_fixing,1.0,1594.1750000020254,1554476516816.0,1554476515221.0,BLIND,39.0,1599.0,8.0 22.0
16835,8.0,668251.0,0.7,39.0,low,high-low,22.0,rod_fixing,rod_fixing,1.0,210.61000000184868,1554476517032.0,1554476516820.0,BLIND,39.0,217.0,8.0 22.0
16836,8.0,668251.0,0.7,39.0,low,high-low,22.0,rod_fixing,rod_fixing,1.0,225.55500000086613,1554476517264.0,1554476517037.0,BLIND,39.0,233.0,8.0 22.0
16837,8.0,668251.0,0.7,39.0,low,high-low,22.0,rod_fixing,rod_fixing,1.0,225.35000000055882,1554476517496.0,1554476517270.0,BLIND,39.0,230.0,8.0 22.0
16838,8.0,668251.0,0.7,39.0,low,high-low,22.0,rod_fixing,rod_fixing,1.0,226.68999999947846,1554476517728.0,1554476517500.0,BLIND,39.0,232.0,8.0 22.0
16839,8.0,668251.0,0.7,39.0,low,high-low,22.0,rod_fixing,rod_fixing,1.0,234.62999999895686,1554476517968.0,1554476517732.0,BLIND,39.0,242.0,8.0 22.0
16840,8.0,668251.0,0.7,39.0,low,high-low,22.0,rod_fixing,rod_fixing,1.0,224.8699999981327,1554476518200.0,1554476517974.0,BLIND,39.0,232.0,8.0 22.0
16914,11.0,668251.0,2.5,39.0,low,high-low,22.0,rod_fixing,rod_fixing,1.0,1419.8150000011085,1554476555921.0,1554476554500.0,BLIND,39.0,1426.0,11.0 22.0
16915,11.0,668251.0,2.5,39.0,low,high-low,22.0,rod_fixing,rod_fixing,1.0,258.119999998482,1554476556184.0,1554476555926.0,BLIND,39.0,263.0,11.0 22.0
16916,11.0,668251.0,2.5,39.0,low,high-low,22.0,rod_fixing,rod_fixing,1.0,226.41999999899414,1554476556417.0,1554476556189.0,BLIND,39.0,234.0,11.0 22.0
16917,11.0,668251.0,2.5,39.0,low,high-low,22.0,rod_fixing,rod_fixing,1.0,257.0449999984121,1554476556681.0,1554476556423.0,BLIND,39.0,261.0,11.0 22.0
16918,11.0,668251.0,2.5,39.0,low,high-low,22.0,rod_fixing,rod_fixing,1.0,227.79499999887776,1554476556913.0,1554476556684.0,BLIND,39.0,233.0,11.0 22.0
16919,11.0,668251.0,2.5,39.0,low,high-low,22.0,rod_fixing,rod_fixing,1.0,210.7849999993341,1554476557129.0,1554476556917.0,BLIND,39.0,217.0,11.0 22.0
16920,11.0,668251.0,2.5,39.0,low,high-low,22.0,rod_fixing,rod_fixing,1.0,196.30999999935742,1554476557330.0,1554476557134.0,BLIND,39.0,203.0,11.0 22.0
17151,3.0,668263.0,1.2,39.0,high,high-low,11.0,rod_fixing,rod_fixing,1.0,508.75000000814913,1554476039719.0,1554476039210.0,BLIND,39.0,513.0,3.0 11.0
17152,3.0,668263.0,1.2,39.0,high,high-low,11.0,rod_fixing,rod_fixing,1.0,139.0599999867845,1554476039863.0,1554476039723.0,BLIND,39.0,141.0,3.0 11.0
17153,3.0,668263.0,1.2,39.0,high,high-low,11.0,rod_fixing,rod_fixing,1.0,126.38499998138286,1554476039991.0,1554476039864.0,BLIND,39.0,130.0,3.0 11.0
17154,3.0,668263.0,1.2,39.0,high,high-low,11.0,rod_fixing,rod_fixing,1.0,140.5300000042189,1554476040135.0,1554476039994.0,BLIND,39.0,143.0,3.0 11.0
17155,3.0,668263.0,1.2,39.0,high,high-low,11.0,rod_fixing,rod_fixing,1.0,141.7350000119768,1554476040279.0,1554476040137.0,BLIND,39.0,145.0,3.0 11.0
17156,3.0,668263.0,1.2,39.0,high,high-low,11.0,rod_fixing,rod_fixing,1.0,140.13499999418855,1554476040423.0,1554476040282.0,BLIND,39.0,145.0,3.0 11.0
17157,3.0,668263.0,1.2,39.0,high,high-low,11.0,rod_fixing,rod_fixing,1.0,155.23999999277294,1554476040583.0,1554476040427.0,BLIND,39.0,158.0,3.0 11.0
17480,7.0,668263.0,0.1,39.0,high,high-low,11.0,rod_fixing,rod_fixing,1.0,575.314999994589,1554476092123.0,1554476091546.0,BLIND,39.0,582.0,7.0 11.0
17481,7.0,668263.0,0.1,39.0,high,high-low,11.0,rod_fixing,rod_fixing,1.0,153.20000000065193,1554476092282.0,1554476092128.0,BLIND,39.0,159.0,7.0 11.0
17482,7.0,668263.0,0.1,39.0,high,high-low,11.0,rod_fixing,rod_fixing,1.0,153.96500000497326,1554476092442.0,1554476092287.0,BLIND,39.0,159.0,7.0 11.0
17483,7.0,668263.0,0.1,39.0,high,high-low,11.0,rod_fixing,rod_fixing,1.0,155.5999999982305,1554476092603.0,1554476092446.0,BLIND,39.0,163.0,7.0 11.0
17484,7.0,668263.0,0.1,39.0,high,high-low,11.0,rod_fixing,rod_fixing,1.0,136.33499998832121,1554476092746.0,1554476092609.0,BLIND,39.0,142.0,7.0 11.0
17485,7.0,668263.0,0.1,39.0,high,high-low,11.0,rod_fixing,rod_fixing,1.0,154.91000001202337,1554476092906.0,1554476092751.0,BLIND,39.0,160.0,7.0 11.0
17486,7.0,668263.0,0.1,39.0,high,high-low,11.0,rod_fixing,rod_fixing,1.0,186.5899999975227,1554476093099.0,1554476092911.0,BLIND,39.0,192.0,7.0 11.0
17790,11.0,668263.0,2.5,39.0,high,high-low,11.0,rod_fixing,rod_fixing,1.0,748.9649999770337,1554476144621.0,1554476143871.0,BLIND,39.0,754.0,11.0 11.0
17791,11.0,668263.0,2.5,39.0,high,high-low,11.0,rod_fixing,rod_fixing,1.0,139.6250000107102,1554476144765.0,1554476144625.0,BLIND,39.0,145.0,11.0 11.0
17792,11.0,668263.0,2.5,39.0,high,high-low,11.0,rod_fixing,rod_fixing,1.0,122.7599999983795,1554476144893.0,1554476144770.0,BLIND,39.0,127.0,11.0 11.0
17793,11.0,668263.0,2.5,39.0,high,high-low,11.0,rod_fixing,rod_fixing,1.0,121.72999998438172,1554476145021.0,1554476144897.0,BLIND,39.0,128.0,11.0 11.0
17794,11.0,668263.0,2.5,39.0,high,high-low,11.0,rod_fixing,rod_fixing,1.0,123.00500000128523,1554476145149.0,1554476145025.0,BLIND,39.0,129.0,11.0 11.0
17795,11.0,668263.0,2.5,39.0,high,high-low,11.0,rod_fixing,rod_fixing,1.0,315.54500001948327,1554476145470.0,1554476145154.0,BLIND,39.0,322.0,11.0 11.0
17796,11.0,668263.0,2.5,39.0,high,high-low,11.0,rod_fixing,rod_fixing,1.0,135.59499999973923,1554476145613.0,1554476145476.0,BLIND,39.0,140.0,11.0 11.0
18207,4.0,668263.0,2.5,39.0,high,high-low,21.0,rod_fixing,rod_fixing,1.0,602.9850000049919,1554476218769.0,1554476218165.0,BLIND,39.0,612.0,4.0 21.0
18208,4.0,668263.0,2.5,39.0,high,high-low,21.0,rod_fixing,rod_fixing,1.0,117.51999999978581,1554476218897.0,1554476218777.0,BLIND,39.0,128.0,4.0 21.0
18209,4.0,668263.0,2.5,39.0,high,high-low,21.0,rod_fixing,rod_fixing,1.0,166.1049999820534,1554476219073.0,1554476218905.0,BLIND,39.0,173.0,4.0 21.0
18210,4.0,668263.0,2.5,39.0,high,high-low,21.0,rod_fixing,rod_fixing,1.0,121.39999997452831,1554476219200.0,1554476219078.0,BLIND,39.0,128.0,4.0 21.0
18211,4.0,668263.0,2.5,39.0,high,high-low,21.0,rod_fixing,rod_fixing,1.0,153.82500001578592,1554476219360.0,1554476219206.0,BLIND,39.0,160.0,4.0 21.0
18212,4.0,668263.0,2.5,39.0,high,high-low,21.0,rod_fixing,rod_fixing,1.0,169.80500001227483,1554476219537.0,1554476219366.0,BLIND,39.0,177.0,4.0 21.0
18213,4.0,668263.0,2.5,39.0,high,high-low,21.0,rod_fixing,rod_fixing,1.0,167.88500000257045,1554476219713.0,1554476219543.0,BLIND,39.0,178.0,4.0 21.0
18770,11.0,668263.0,0.7,39.0,high,high-low,21.0,rod_fixing,rod_fixing,1.0,602.2999999986496,1554476310310.0,1554476309707.0,BLIND,39.0,609.0,11.0 21.0
18771,11.0,668263.0,0.7,39.0,high,high-low,21.0,rod_fixing,rod_fixing,1.0,120.30999999842605,1554476310438.0,1554476310316.0,BLIND,39.0,128.0,11.0 21.0
18772,11.0,668263.0,0.7,39.0,high,high-low,21.0,rod_fixing,rod_fixing,1.0,137.1050000016112,1554476310582.0,1554476310444.0,BLIND,39.0,142.0,11.0 21.0
18773,11.0,668263.0,0.7,39.0,high,high-low,21.0,rod_fixing,rod_fixing,1.0,155.53000001818873,1554476310742.0,1554476310586.0,BLIND,39.0,162.0,11.0 21.0
18774,11.0,668263.0,0.7,39.0,high,high-low,21.0,rod_fixing,rod_fixing,1.0,152.67999999923632,1554476310902.0,1554476310748.0,BLIND,39.0,159.0,11.0 21.0
18775,11.0,668263.0,0.7,39.0,high,high-low,21.0,rod_fixing,rod_fixing,1.0,153.72999999090098,1554476311061.0,1554476310907.0,BLIND,39.0,159.0,11.0 21.0
18776,11.0,668263.0,0.7,39.0,high,high-low,21.0,rod_fixing,rod_fixing,1.0,138.82500000181608,1554476311206.0,1554476311066.0,BLIND,39.0,151.0,11.0 21.0
19051,3.0,668263.0,1.2,39.0,low,high-low,12.0,rod_fixing,rod_fixing,1.0,1181.2950000166893,1554476412411.0,1554476411228.0,BLIND,39.0,1188.0,3.0 12.0
19052,3.0,668263.0,1.2,39.0,low,high-low,12.0,rod_fixing,rod_fixing,1.0,152.9150000133086,1554476412570.0,1554476412416.0,BLIND,39.0,160.0,3.0 12.0
19053,3.0,668263.0,1.2,39.0,low,high-low,12.0,rod_fixing,rod_fixing,1.0,137.69000000320378,1554476412714.0,1554476412576.0,BLIND,39.0,146.0,3.0 12.0
19054,3.0,668263.0,1.2,39.0,low,high-low,12.0,rod_fixing,rod_fixing,1.0,118.87000000569971,1554476412842.0,1554476412722.0,BLIND,39.0,128.0,3.0 12.0
19055,3.0,668263.0,1.2,39.0,low,high-low,12.0,rod_fixing,rod_fixing,1.0,152.4100000096951,1554476413003.0,1554476412850.0,BLIND,39.0,163.0,3.0 12.0
19056,3.0,668263.0,1.2,39.0,low,high-low,12.0,rod_fixing,rod_fixing,1.0,131.90500001655892,1554476413147.0,1554476413013.0,BLIND,39.0,142.0,3.0 12.0
19057,3.0,668263.0,1.2,39.0,low,high-low,12.0,rod_fixing,rod_fixing,1.0,166.84499999973926,1554476413323.0,1554476413155.0,BLIND,39.0,177.0,3.0 12.0
19323,7.0,668263.0,0.1,39.0,low,high-low,12.0,rod_fixing,rod_fixing,1.0,1086.429999995744,1554476464766.0,1554476463679.0,BLIND,39.0,1096.0,7.0 12.0
19324,7.0,668263.0,0.1,39.0,low,high-low,12.0,rod_fixing,rod_fixing,1.0,133.2950000069104,1554476464910.0,1554476464775.0,BLIND,39.0,143.0,7.0 12.0
19325,7.0,668263.0,0.1,39.0,low,high-low,12.0,rod_fixing,rod_fixing,1.0,151.00499999243766,1554476465070.0,1554476464918.0,BLIND,39.0,160.0,7.0 12.0
19326,7.0,668263.0,0.1,39.0,low,high-low,12.0,rod_fixing,rod_fixing,1.0,151.08999999938533,1554476465230.0,1554476465078.0,BLIND,39.0,161.0,7.0 12.0
19327,7.0,668263.0,0.1,39.0,low,high-low,12.0,rod_fixing,rod_fixing,1.0,165.79500000807457,1554476465406.0,1554476465239.0,BLIND,39.0,176.0,7.0 12.0
19328,7.0,668263.0,0.1,39.0,low,high-low,12.0,rod_fixing,rod_fixing,1.0,181.84499998460527,1554476465598.0,1554476465415.0,BLIND,39.0,192.0,7.0 12.0
19329,7.0,668263.0,0.1,39.0,low,high-low,12.0,rod_fixing,rod_fixing,1.0,198.18500001565556,1554476465806.0,1554476465607.0,BLIND,39.0,209.0,7.0 12.0
19582,11.0,668263.0,2.5,39.0,low,high-low,12.0,rod_fixing,rod_fixing,1.0,1181.3750000146683,1554476517072.0,1554476515890.0,BLIND,39.0,1187.0,11.0 12.0
19583,11.0,668263.0,2.5,39.0,low,high-low,12.0,rod_fixing,rod_fixing,1.0,314.69500000821427,1554476517392.0,1554476517077.0,BLIND,39.0,325.0,11.0 12.0
19584,11.0,668263.0,2.5,39.0,low,high-low,12.0,rod_fixing,rod_fixing,1.0,165.69500000332482,1554476517568.0,1554476517402.0,BLIND,39.0,175.0,11.0 12.0
19585,11.0,668263.0,2.5,39.0,low,high-low,12.0,rod_fixing,rod_fixing,1.0,182.1650000056252,1554476517760.0,1554476517577.0,BLIND,39.0,192.0,11.0 12.0
19586,11.0,668263.0,2.5,39.0,low,high-low,12.0,rod_fixing,rod_fixing,1.0,134.91000002250075,1554476517905.0,1554476517769.0,BLIND,39.0,145.0,11.0 12.0
19587,11.0,668263.0,2.5,39.0,low,high-low,12.0,rod_fixing,rod_fixing,1.0,181.34999999892898,1554476518096.0,1554476517914.0,BLIND,39.0,191.0,11.0 12.0
19588,11.0,668263.0,2.5,39.0,low,high-low,12.0,rod_fixing,rod_fixing,1.0,198.53999998304062,1554476518304.0,1554476518105.0,BLIND,39.0,207.0,11.0 12.0
19919,4.0,668263.0,2.5,39.0,low,high-low,22.0,rod_fixing,rod_fixing,1.0,771.0500000102911,1554476584307.0,1554476583535.0,BLIND,39.0,778.0,4.0 22.0
19920,4.0,668263.0,2.5,39.0,low,high-low,22.0,rod_fixing,rod_fixing,1.0,169.40500002237968,1554476584483.0,1554476584313.0,BLIND,39.0,176.0,4.0 22.0
19921,4.0,668263.0,2.5,39.0,low,high-low,22.0,rod_fixing,rod_fixing,1.0,169.54999999143186,1554476584659.0,1554476584489.0,BLIND,39.0,176.0,4.0 22.0
19922,4.0,668263.0,2.5,39.0,low,high-low,22.0,rod_fixing,rod_fixing,1.0,185.5550000036601,1554476584851.0,1554476584665.0,BLIND,39.0,196.0,4.0 22.0
19923,4.0,668263.0,2.5,39.0,low,high-low,22.0,rod_fixing,rod_fixing,1.0,164.90499998326413,1554476585027.0,1554476584861.0,BLIND,39.0,174.0,4.0 22.0
19924,4.0,668263.0,2.5,39.0,low,high-low,22.0,rod_fixing,rod_fixing,1.0,167.8799999936018,1554476585204.0,1554476585035.0,BLIND,39.0,180.0,4.0 22.0
19925,4.0,668263.0,2.5,39.0,low,high-low,22.0,rod_fixing,rod_fixing,1.0,162.8049999999348,1554476585379.0,1554476585215.0,BLIND,39.0,172.0,4.0 22.0
20200,8.0,668263.0,0.3,39.0,low,high-low,22.0,rod_fixing,rod_fixing,1.0,928.8050000031944,1554476636870.0,1554476635940.0,BLIND,39.0,935.0,8.0 22.0
20201,8.0,668263.0,0.3,39.0,low,high-low,22.0,rod_fixing,rod_fixing,1.0,170.1849999953993,1554476637046.0,1554476636875.0,BLIND,39.0,180.0,8.0 22.0
20202,8.0,668263.0,0.3,39.0,low,high-low,22.0,rod_fixing,rod_fixing,1.0,149.87500000279397,1554476637205.0,1554476637055.0,BLIND,39.0,156.0,8.0 22.0
20203,8.0,668263.0,0.3,39.0,low,high-low,22.0,rod_fixing,rod_fixing,1.0,154.50499998405576,1554476637366.0,1554476637211.0,BLIND,39.0,163.0,8.0 22.0
20204,8.0,668263.0,0.3,39.0,low,high-low,22.0,rod_fixing,rod_fixing,1.0,183.5549999959767,1554476637558.0,1554476637374.0,BLIND,39.0,193.0,8.0 22.0
20409,11.0,668263.0,0.7,39.0,low,high-low,22.0,rod_fixing,rod_fixing,1.0,1087.6900000148453,1554476676376.0,1554476675288.0,BLIND,39.0,1098.0,11.0 22.0
20410,11.0,668263.0,0.7,39.0,low,high-low,22.0,rod_fixing,rod_fixing,1.0,164.96500000357628,1554476676552.0,1554476676386.0,BLIND,39.0,171.0,11.0 22.0
20411,11.0,668263.0,0.7,39.0,low,high-low,22.0,rod_fixing,rod_fixing,1.0,138.28499999362975,1554476676696.0,1554476676557.0,BLIND,39.0,145.0,11.0 22.0
20412,11.0,668263.0,0.7,39.0,low,high-low,22.0,rod_fixing,rod_fixing,1.0,153.3449999988079,1554476676856.0,1554476676702.0,BLIND,39.0,158.0,11.0 22.0
20413,11.0,668263.0,0.7,39.0,low,high-low,22.0,rod_fixing,rod_fixing,1.0,172.11500002304092,1554476677032.0,1554476676860.0,BLIND,39.0,179.0,11.0 22.0
20414,11.0,668263.0,0.7,39.0,low,high-low,22.0,rod_fixing,rod_fixing,1.0,152.05500001320615,1554476677192.0,1554476677039.0,BLIND,39.0,161.0,11.0 22.0
20415,11.0,668263.0,0.7,39.0,low,high-low,22.0,rod_fixing,rod_fixing,1.0,134.73499999963678,1554476677336.0,1554476677200.0,BLIND,39.0,145.0,11.0 22.0
24384,3.0,668370.0,1.2,39.0,high,high-low,11.0,rod_fixing,rod_fixing,1.0,483.96000000047934,1554479525784.0,1554479525298.0,BLIND,39.0,490.0,3.0 11.0
24385,3.0,668370.0,1.2,39.0,high,high-low,11.0,rod_fixing,rod_fixing,1.0,370.0550000003204,1554479526160.0,1554479525788.0,BLIND,39.0,377.0,3.0 11.0
24386,3.0,668370.0,1.2,39.0,high,high-low,11.0,rod_fixing,rod_fixing,1.0,167.9299999996147,1554479526334.0,1554479526165.0,BLIND,39.0,179.0,3.0 11.0
24387,3.0,668370.0,1.2,39.0,high,high-low,11.0,rod_fixing,rod_fixing,1.0,108.11999999987164,1554479526456.0,1554479526344.0,BLIND,39.0,118.0,3.0 11.0
24388,3.0,668370.0,1.2,39.0,high,high-low,11.0,rod_fixing,rod_fixing,1.0,97.56000000015774,1554479526562.0,1554479526462.0,BLIND,39.0,107.0,3.0 11.0
24389,3.0,668370.0,1.2,39.0,high,high-low,11.0,rod_fixing,rod_fixing,1.0,96.46000000066124,1554479526668.0,1554479526569.0,BLIND,39.0,108.0,3.0 11.0
24390,3.0,668370.0,1.2,39.0,high,high-low,11.0,rod_fixing,rod_fixing,1.0,118.22500000016588,1554479526797.0,1554479526677.0,BLIND,39.0,129.0,3.0 11.0
24752,7.0,668370.0,1.2,39.0,high,high-low,11.0,rod_fixing,rod_fixing,1.0,455.7450000001991,1554479578082.0,1554479577626.0,BLIND,39.0,465.0,7.0 11.0
24753,7.0,668370.0,1.2,39.0,high,high-low,11.0,rod_fixing,rod_fixing,1.0,139.63000000058673,1554479578232.0,1554479578091.0,BLIND,39.0,151.0,7.0 11.0
24754,7.0,668370.0,1.2,39.0,high,high-low,11.0,rod_fixing,rod_fixing,1.0,250.5649999993766,1554479578494.0,1554479578242.0,BLIND,39.0,266.0,7.0 11.0
24755,7.0,668370.0,1.2,39.0,high,high-low,11.0,rod_fixing,rod_fixing,1.0,146.4300000006915,1554479578656.0,1554479578508.0,BLIND,39.0,158.0,7.0 11.0
24756,7.0,668370.0,1.2,39.0,high,high-low,11.0,rod_fixing,rod_fixing,1.0,143.54999999978463,1554479578811.0,1554479578666.0,BLIND,39.0,153.0,7.0 11.0
24757,7.0,668370.0,1.2,39.0,high,high-low,11.0,rod_fixing,rod_fixing,1.0,113.15499999999884,1554479578934.0,1554479578819.0,BLIND,39.0,122.0,7.0 11.0
24758,7.0,668370.0,1.2,39.0,high,high-low,11.0,rod_fixing,rod_fixing,1.0,106.86999999961701,1554479579050.0,1554479578941.0,BLIND,39.0,116.0,7.0 11.0
25115,11.0,668370.0,1.8,39.0,high,high-low,11.0,rod_fixing,rod_fixing,1.0,454.470000000554,1554479630501.0,1554479630046.0,BLIND,39.0,462.0,11.0 11.0
25116,11.0,668370.0,1.8,39.0,high,high-low,11.0,rod_fixing,rod_fixing,1.0,146.4050000004063,1554479630656.0,1554479630508.0,BLIND,39.0,158.0,11.0 11.0
25117,11.0,668370.0,1.8,39.0,high,high-low,11.0,rod_fixing,rod_fixing,1.0,128.47499999951108,1554479630797.0,1554479630666.0,BLIND,39.0,141.0,11.0 11.0
25118,11.0,668370.0,1.8,39.0,high,high-low,11.0,rod_fixing,rod_fixing,1.0,95.91999999975089,1554479630905.0,1554479630807.0,BLIND,39.0,104.0,11.0 11.0
25119,11.0,668370.0,1.8,39.0,high,high-low,11.0,rod_fixing,rod_fixing,1.0,97.83000000062748,1554479631011.0,1554479630911.0,BLIND,39.0,104.0,11.0 11.0
25120,11.0,668370.0,1.8,39.0,high,high-low,11.0,rod_fixing,rod_fixing,1.0,125.34500000037953,1554479631142.0,1554479631015.0,BLIND,39.0,136.0,11.0 11.0
25121,11.0,668370.0,1.8,39.0,high,high-low,11.0,rod_fixing,rod_fixing,1.0,234.71000000063214,1554479631388.0,1554479631151.0,BLIND,39.0,248.0,11.0 11.0
25538,4.0,668370.0,1.8,39.0,high,high-low,21.0,rod_fixing,rod_fixing,1.0,462.76000000035856,1554479709140.0,1554479708676.0,BLIND,39.0,477.0,4.0 21.0
25539,4.0,668370.0,1.8,39.0,high,high-low,21.0,rod_fixing,rod_fixing,1.0,137.73000000035972,1554479709293.0,1554479709153.0,BLIND,39.0,153.0,4.0 21.0
25540,4.0,668370.0,1.8,39.0,high,high-low,21.0,rod_fixing,rod_fixing,1.0,127.79999999928988,1554479709436.0,1554479709306.0,BLIND,39.0,139.0,4.0 21.0
25541,4.0,668370.0,1.8,39.0,high,high-low,21.0,rod_fixing,rod_fixing,1.0,123.10999999954949,1554479709570.0,1554479709445.0,BLIND,39.0,134.0,4.0 21.0
25542,4.0,668370.0,1.8,39.0,high,high-low,21.0,rod_fixing,rod_fixing,1.0,114.8250000005646,1554479709696.0,1554479709579.0,BLIND,39.0,126.0,4.0 21.0
25543,4.0,668370.0,1.8,39.0,high,high-low,21.0,rod_fixing,rod_fixing,1.0,125.45500000030735,1554479709832.0,1554479709705.0,BLIND,39.0,135.0,4.0 21.0
25544,4.0,668370.0,1.8,39.0,high,high-low,21.0,rod_fixing,rod_fixing,1.0,117.1999999996915,1554479709958.0,1554479709840.0,BLIND,39.0,125.0,4.0 21.0
25877,8.0,668370.0,1.8,39.0,high,high-low,21.0,rod_fixing,rod_fixing,1.0,898.1749999993482,1554479761983.0,1554479761083.0,BLIND,39.0,910.0,8.0 21.0
25878,8.0,668370.0,1.8,39.0,high,high-low,21.0,rod_fixing,rod_fixing,1.0,158.63499999977648,1554479762154.0,1554479761993.0,BLIND,39.0,175.0,8.0 21.0
25879,8.0,668370.0,1.8,39.0,high,high-low,21.0,rod_fixing,rod_fixing,1.0,99.51999999972759,1554479762269.0,1554479762168.0,BLIND,39.0,111.0,8.0 21.0
25880,8.0,668370.0,1.8,39.0,high,high-low,21.0,rod_fixing,rod_fixing,1.0,115.76499999960652,1554479762397.0,1554479762279.0,BLIND,39.0,133.0,8.0 21.0
25881,8.0,668370.0,1.8,39.0,high,high-low,21.0,rod_fixing,rod_fixing,1.0,120.69999999948776,1554479762534.0,1554479762412.0,BLIND,39.0,133.0,8.0 21.0
25882,8.0,668370.0,1.8,39.0,high,high-low,21.0,rod_fixing,rod_fixing,1.0,101.20000000001164,1554479762648.0,1554479762545.0,BLIND,39.0,117.0,8.0 21.0
25883,8.0,668370.0,1.8,39.0,high,high-low,21.0,rod_fixing,rod_fixing,1.0,87.41999999980908,1554479762751.0,1554479762662.0,BLIND,39.0,99.0,8.0 21.0
26121,11.0,668370.0,0.3,39.0,high,high-low,21.0,rod_fixing,rod_fixing,1.0,1254.4699999998554,1554479801603.0,1554479800347.0,BLIND,39.0,1264.0,11.0 21.0
26122,11.0,668370.0,0.3,39.0,high,high-low,21.0,rod_fixing,rod_fixing,1.0,150.35499999974854,1554479801762.0,1554479801611.0,BLIND,39.0,163.0,11.0 21.0
26123,11.0,668370.0,0.3,39.0,high,high-low,21.0,rod_fixing,rod_fixing,1.0,83.3849999998929,1554479801859.0,1554479801774.0,BLIND,39.0,97.0,11.0 21.0
26124,11.0,668370.0,0.3,39.0,high,high-low,21.0,rod_fixing,rod_fixing,1.0,120.26999999943656,1554479801992.0,1554479801871.0,BLIND,39.0,134.0,11.0 21.0
26125,11.0,668370.0,0.3,39.0,high,high-low,21.0,rod_fixing,rod_fixing,1.0,92.54000000050293,1554479802098.0,1554479802005.0,BLIND,39.0,106.0,11.0 21.0
26126,11.0,668370.0,0.3,39.0,high,high-low,21.0,rod_fixing,rod_fixing,1.0,116.20500000024911,1554479802229.0,1554479802111.0,BLIND,39.0,135.0,11.0 21.0
26127,11.0,668370.0,0.3,39.0,high,high-low,21.0,rod_fixing,rod_fixing,1.0,143.60000000032596,1554479802391.0,1554479802246.0,BLIND,39.0,155.0,11.0 21.0
26452,3.0,668370.0,1.2,39.0,low,high-low,12.0,rod_fixing,rod_fixing,1.0,891.4100000001489,1554479882987.0,1554479882093.0,BLIND,39.0,908.0,3.0 12.0
26453,3.0,668370.0,1.2,39.0,low,high-low,12.0,rod_fixing,rod_fixing,1.0,158.5199999999604,1554479883162.0,1554479883001.0,BLIND,39.0,178.0,3.0 12.0
26454,3.0,668370.0,1.2,39.0,low,high-low,12.0,rod_fixing,rod_fixing,1.0,100.38499999971829,1554479883281.0,1554479883179.0,BLIND,39.0,115.0,3.0 12.0
26455,3.0,668370.0,1.2,39.0,low,high-low,12.0,rod_fixing,rod_fixing,1.0,167.730000000156,1554479883463.0,1554479883294.0,BLIND,39.0,187.0,3.0 12.0
26456,3.0,668370.0,1.2,39.0,low,high-low,12.0,rod_fixing,rod_fixing,1.0,136.51000000024214,1554479883619.0,1554479883481.0,BLIND,39.0,154.0,3.0 12.0
26457,3.0,668370.0,1.2,39.0,low,high-low,12.0,rod_fixing,rod_fixing,1.0,120.68499999982305,1554479883757.0,1554479883635.0,BLIND,39.0,138.0,3.0 12.0
26458,3.0,668370.0,1.2,39.0,low,high-low,12.0,rod_fixing,rod_fixing,1.0,176.2200000002631,1554479883950.0,1554479883773.0,BLIND,39.0,191.0,3.0 12.0
26773,7.0,668370.0,1.2,39.0,low,high-low,12.0,rod_fixing,rod_fixing,1.0,507.27000000007683,1554479935083.0,1554479934575.0,BLIND,39.0,514.0,7.0 12.0
26774,7.0,668370.0,1.2,39.0,low,high-low,12.0,rod_fixing,rod_fixing,1.0,131.47999999910826,1554479935222.0,1554479935089.0,BLIND,39.0,147.0,7.0 12.0
26775,7.0,668370.0,1.2,39.0,low,high-low,12.0,rod_fixing,rod_fixing,1.0,93.8800000003539,1554479935331.0,1554479935236.0,BLIND,39.0,109.0,7.0 12.0
26776,7.0,668370.0,1.2,39.0,low,high-low,12.0,rod_fixing,rod_fixing,1.0,112.18000000010944,1554479935458.0,1554479935345.0,BLIND,39.0,127.0,7.0 12.0
26777,7.0,668370.0,1.2,39.0,low,high-low,12.0,rod_fixing,rod_fixing,1.0,121.02000000048427,1554479935595.0,1554479935472.0,BLIND,39.0,136.0,7.0 12.0
26778,7.0,668370.0,1.2,39.0,low,high-low,12.0,rod_fixing,rod_fixing,1.0,135.75500000023752,1554479935746.0,1554479935608.0,BLIND,39.0,154.0,7.0 12.0
26779,7.0,668370.0,1.2,39.0,low,high-low,12.0,rod_fixing,rod_fixing,1.0,231.83999999944356,1554479935996.0,1554479935762.0,BLIND,39.0,251.0,7.0 12.0
27092,11.0,668370.0,1.8,39.0,low,high-low,12.0,rod_fixing,rod_fixing,1.0,435.2400000006892,1554479987474.0,1554479987038.0,BLIND,39.0,449.0,11.0 12.0
27093,11.0,668370.0,1.8,39.0,low,high-low,12.0,rod_fixing,rod_fixing,1.0,143.3900000001886,1554479987632.0,1554479987487.0,BLIND,39.0,165.0,11.0 12.0
27094,11.0,668370.0,1.8,39.0,low,high-low,12.0,rod_fixing,rod_fixing,1.0,96.19000000023516,1554479987750.0,1554479987652.0,BLIND,39.0,112.0,11.0 12.0
27095,11.0,668370.0,1.8,39.0,low,high-low,12.0,rod_fixing,rod_fixing,1.0,120.74000000028171,1554479987886.0,1554479987764.0,BLIND,39.0,143.0,11.0 12.0
27096,11.0,668370.0,1.8,39.0,low,high-low,12.0,rod_fixing,rod_fixing,1.0,124.6099999998696,1554479988033.0,1554479987907.0,BLIND,39.0,142.0,11.0 12.0
27097,11.0,668370.0,1.8,39.0,low,high-low,12.0,rod_fixing,rod_fixing,1.0,124.24999999982538,1554479988174.0,1554479988049.0,BLIND,39.0,138.0,11.0 12.0
27098,11.0,668370.0,1.8,39.0,low,high-low,12.0,rod_fixing,rod_fixing,1.0,103.2150000000838,1554479988292.0,1554479988187.0,BLIND,39.0,118.0,11.0 12.0
27498,4.0,668370.0,1.8,39.0,low,high-low,22.0,rod_fixing,rod_fixing,1.0,1295.0249999994412,1554480071771.0,1554480070475.0,BLIND,39.0,1305.0,4.0 22.0
27499,4.0,668370.0,1.8,39.0,low,high-low,22.0,rod_fixing,rod_fixing,1.0,145.2650000001304,1554480071927.0,1554480071780.0,BLIND,39.0,162.0,4.0 22.0
27500,4.0,668370.0,1.8,39.0,low,high-low,22.0,rod_fixing,rod_fixing,1.0,122.34500000067057,1554480072065.0,1554480071942.0,BLIND,39.0,139.0,4.0 22.0
27501,4.0,668370.0,1.8,39.0,low,high-low,22.0,rod_fixing,rod_fixing,1.0,130.60000000044238,1554480072212.0,1554480072081.0,BLIND,39.0,147.0,4.0 22.0
27502,4.0,668370.0,1.8,39.0,low,high-low,22.0,rod_fixing,rod_fixing,1.0,111.6799999999348,1554480072341.0,1554480072228.0,BLIND,39.0,128.0,4.0 22.0
27503,4.0,668370.0,1.8,39.0,low,high-low,22.0,rod_fixing,rod_fixing,1.0,112.379999999539,1554480072470.0,1554480072356.0,BLIND,39.0,131.0,4.0 22.0
27504,4.0,668370.0,1.8,39.0,low,high-low,22.0,rod_fixing,rod_fixing,1.0,125.52000000048427,1554480072614.0,1554480072487.0,BLIND,39.0,147.0,4.0 22.0
27787,8.0,668370.0,1.8,39.0,low,high-low,22.0,rod_fixing,rod_fixing,1.0,512.1750000007452,1554480123401.0,1554480122887.0,BLIND,39.0,528.0,8.0 22.0
27788,8.0,668370.0,1.8,39.0,low,high-low,22.0,rod_fixing,rod_fixing,1.0,147.98999999940858,1554480123565.0,1554480123415.0,BLIND,39.0,170.0,8.0 22.0
27789,8.0,668370.0,1.8,39.0,low,high-low,22.0,rod_fixing,rod_fixing,1.0,245.27500000025609,1554480123832.0,1554480123585.0,BLIND,39.0,268.0,8.0 22.0
27790,8.0,668370.0,1.8,39.0,low,high-low,22.0,rod_fixing,rod_fixing,1.0,114.0549999999348,1554480123969.0,1554480123853.0,BLIND,39.0,137.0,8.0 22.0
27791,8.0,668370.0,1.8,39.0,low,high-low,22.0,rod_fixing,rod_fixing,1.0,130.25000000011642,1554480124122.0,1554480123990.0,BLIND,39.0,147.0,8.0 22.0
27792,8.0,668370.0,1.8,39.0,low,high-low,22.0,rod_fixing,rod_fixing,1.0,137.98500000033528,1554480124277.0,1554480124137.0,BLIND,39.0,160.0,8.0 22.0
27793,8.0,668370.0,1.8,39.0,low,high-low,22.0,rod_fixing,rod_fixing,1.0,136.7399999998743,1554480124435.0,1554480124297.0,BLIND,39.0,162.0,8.0 22.0
28038,11.0,668370.0,0.3,39.0,low,high-low,22.0,rod_fixing,rod_fixing,1.0,848.2199999998556,1554480163048.0,1554480162198.0,BLIND,39.0,871.0,11.0 22.0
28039,11.0,668370.0,0.3,39.0,low,high-low,22.0,rod_fixing,rod_fixing,1.0,123.67999999970198,1554480163194.0,1554480163069.0,BLIND,39.0,148.0,11.0 22.0
28040,11.0,668370.0,0.3,39.0,low,high-low,22.0,rod_fixing,rod_fixing,1.0,123.2099999998463,1554480163342.0,1554480163217.0,BLIND,39.0,141.0,11.0 22.0
28041,11.0,668370.0,0.3,39.0,low,high-low,22.0,rod_fixing,rod_fixing,1.0,383.8949999999022,1554480163743.0,1554480163358.0,BLIND,39.0,398.0,11.0 22.0
28042,11.0,668370.0,0.3,39.0,low,high-low,22.0,rod_fixing,rod_fixing,1.0,121.38500000035856,1554480163880.0,1554480163756.0,BLIND,39.0,142.0,11.0 22.0
28043,11.0,668370.0,0.3,39.0,low,high-low,22.0,rod_fixing,rod_fixing,1.0,99.19499999971596,1554480163999.0,1554480163898.0,BLIND,39.0,113.0,11.0 22.0
28044,11.0,668370.0,0.3,39.0,low,high-low,22.0,rod_fixing,rod_fixing,1.0,113.245000000461,1554480164126.0,1554480164011.0,BLIND,39.0,132.0,11.0 22.0
28351,3.0,672044.0,0.3,39.0,high,high-low,11.0,rod_fixing,rod_fixing,1.0,1302.2950000013225,1554822193561.0,1554822192258.0,BLIND,39.0,1305.0,3.0 11.0
28352,3.0,672044.0,0.3,39.0,high,high-low,11.0,rod_fixing,rod_fixing,1.0,180.00999998184852,1554822193744.0,1554822193563.0,BLIND,39.0,183.0,3.0 11.0
28353,3.0,672044.0,0.3,39.0,high,high-low,11.0,rod_fixing,rod_fixing,1.0,170.25999998440966,1554822193917.0,1554822193746.0,BLIND,39.0,173.0,3.0 11.0
28354,3.0,672044.0,0.3,39.0,high,high-low,11.0,rod_fixing,rod_fixing,1.0,162.5400000193622,1554822194082.0,1554822193919.0,BLIND,39.0,165.0,3.0 11.0
28355,3.0,672044.0,0.3,39.0,high,high-low,11.0,rod_fixing,rod_fixing,1.0,154.68499998678453,1554822194239.0,1554822194084.0,BLIND,39.0,158.0,3.0 11.0
28356,3.0,672044.0,0.3,39.0,high,high-low,11.0,rod_fixing,rod_fixing,1.0,160.85000001476146,1554822194404.0,1554822194242.0,BLIND,39.0,164.0,3.0 11.0
28357,3.0,672044.0,0.3,39.0,high,high-low,11.0,rod_fixing,rod_fixing,1.0,168.27999998349696,1554822194574.0,1554822194406.0,BLIND,39.0,170.0,3.0 11.0
28643,7.0,672044.0,0.7,39.0,high,high-low,11.0,rod_fixing,rod_fixing,1.0,1122.960000007879,1554822245751.0,1554822244628.0,BLIND,39.0,1125.0,7.0 11.0
28644,7.0,672044.0,0.7,39.0,high,high-low,11.0,rod_fixing,rod_fixing,1.0,192.3850000021048,1554822245946.0,1554822245753.0,BLIND,39.0,197.0,7.0 11.0
28645,7.0,672044.0,0.7,39.0,high,high-low,11.0,rod_fixing,rod_fixing,1.0,171.97500000474975,1554822246123.0,1554822245950.0,BLIND,39.0,175.0,7.0 11.0
28646,7.0,672044.0,0.7,39.0,high,high-low,11.0,rod_fixing,rod_fixing,1.0,168.81000000284985,1554822246295.0,1554822246125.0,BLIND,39.0,172.0,7.0 11.0
28647,7.0,672044.0,0.7,39.0,high,high-low,11.0,rod_fixing,rod_fixing,1.0,182.87499999860302,1554822246481.0,1554822246297.0,BLIND,39.0,186.0,7.0 11.0
28648,7.0,672044.0,0.7,39.0,high,high-low,11.0,rod_fixing,rod_fixing,1.0,203.0950000043958,1554822246687.0,1554822246483.0,BLIND,39.0,206.0,7.0 11.0
28649,7.0,672044.0,0.7,39.0,high,high-low,11.0,rod_fixing,rod_fixing,1.0,189.0300000086427,1554822246878.0,1554822246689.0,BLIND,39.0,192.0,7.0 11.0
28929,11.0,672044.0,2.5,39.0,high,high-low,11.0,rod_fixing,rod_fixing,1.0,1117.10000000312,1554822298167.0,1554822297049.0,BLIND,39.0,1120.0,11.0 11.0
28930,11.0,672044.0,2.5,39.0,high,high-low,11.0,rod_fixing,rod_fixing,1.0,182.45999998180199,1554822298352.0,1554822298169.0,BLIND,39.0,185.0,11.0 11.0
28931,11.0,672044.0,2.5,39.0,high,high-low,11.0,rod_fixing,rod_fixing,1.0,189.71999999484981,1554822298544.0,1554822298354.0,BLIND,39.0,193.0,11.0 11.0
28932,11.0,672044.0,2.5,39.0,high,high-low,11.0,rod_fixing,rod_fixing,1.0,182.21499997889626,1554822298729.0,1554822298547.0,BLIND,39.0,185.0,11.0 11.0
28933,11.0,672044.0,2.5,39.0,high,high-low,11.0,rod_fixing,rod_fixing,1.0,214.20000001671727,1554822298947.0,1554822298732.0,BLIND,39.0,218.0,11.0 11.0
28934,11.0,672044.0,2.5,39.0,high,high-low,11.0,rod_fixing,rod_fixing,1.0,203.269999998156,1554822299154.0,1554822298950.0,BLIND,39.0,206.0,11.0 11.0
28935,11.0,672044.0,2.5,39.0,high,high-low,11.0,rod_fixing,rod_fixing,1.0,229.40999999991615,1554822299386.0,1554822299156.0,BLIND,39.0,232.0,11.0 11.0
29326,4.0,672044.0,0.3,39.0,high,high-low,21.0,rod_fixing,rod_fixing,1.0,1062.999999994645,1554822422184.0,1554822421121.0,BLIND,39.0,1066.0,4.0 21.0
29327,4.0,672044.0,0.3,39.0,high,high-low,21.0,rod_fixing,rod_fixing,1.0,165.6199999852106,1554822422353.0,1554822422187.0,BLIND,39.0,168.0,4.0 21.0
29328,4.0,672044.0,0.3,39.0,high,high-low,21.0,rod_fixing,rod_fixing,1.0,151.54500000062401,1554822422507.0,1554822422355.0,BLIND,39.0,155.0,4.0 21.0
29329,4.0,672044.0,0.3,39.0,high,high-low,21.0,rod_fixing,rod_fixing,1.0,171.39500001212582,1554822422682.0,1554822422510.0,BLIND,39.0,175.0,4.0 21.0
29330,4.0,672044.0,0.3,39.0,high,high-low,21.0,rod_fixing,rod_fixing,1.0,190.0800000003073,1554822422876.0,1554822422685.0,BLIND,39.0,194.0,4.0 21.0
29331,4.0,672044.0,0.3,39.0,high,high-low,21.0,rod_fixing,rod_fixing,1.0,178.70499999844466,1554822423058.0,1554822422879.0,BLIND,39.0,182.0,4.0 21.0
29332,4.0,672044.0,0.3,39.0,high,high-low,21.0,rod_fixing,rod_fixing,1.0,435.27499999618163,1554822423497.0,1554822423061.0,BLIND,39.0,438.0,4.0 21.0
29623,8.0,672044.0,0.7,39.0,high,high-low,21.0,rod_fixing,rod_fixing,1.0,1107.079999987036,1554822474532.0,1554822473425.0,BLIND,39.0,1110.0,8.0 21.0
29624,8.0,672044.0,0.7,39.0,high,high-low,21.0,rod_fixing,rod_fixing,1.0,144.1449999983888,1554822474679.0,1554822474535.0,BLIND,39.0,147.0,8.0 21.0
29625,8.0,672044.0,0.7,39.0,high,high-low,21.0,rod_fixing,rod_fixing,1.0,145.85000000079162,1554822474829.0,1554822474682.0,BLIND,39.0,150.0,8.0 21.0
29626,8.0,672044.0,0.7,39.0,high,high-low,21.0,rod_fixing,rod_fixing,1.0,145.59000000008382,1554822474978.0,1554822474832.0,BLIND,39.0,149.0,8.0 21.0
29627,8.0,672044.0,0.7,39.0,high,high-low,21.0,rod_fixing,rod_fixing,1.0,145.49500000430268,1554822475128.0,1554822474981.0,BLIND,39.0,150.0,8.0 21.0
29628,8.0,672044.0,0.7,39.0,high,high-low,21.0,rod_fixing,rod_fixing,1.0,155.34500000649132,1554822475286.0,1554822475131.0,BLIND,39.0,158.0,8.0 21.0
29629,8.0,672044.0,0.7,39.0,high,high-low,21.0,rod_fixing,rod_fixing,1.0,154.40499997930598,1554822475444.0,1554822475289.0,BLIND,39.0,158.0,8.0 21.0
29844,11.0,672044.0,1.2,39.0,high,high-low,21.0,rod_fixing,rod_fixing,1.0,1019.6950000245123,1554822513736.0,1554822512716.0,BLIND,39.0,1024.0,11.0 21.0
29845,11.0,672044.0,1.2,39.0,high,high-low,21.0,rod_fixing,rod_fixing,1.0,137.8100000147242,1554822513878.0,1554822513740.0,BLIND,39.0,142.0,11.0 21.0
29846,11.0,672044.0,1.2,39.0,high,high-low,21.0,rod_fixing,rod_fixing,1.0,143.76999999512918,1554822514027.0,1554822513882.0,BLIND,39.0,148.0,11.0 21.0
29847,11.0,672044.0,1.2,39.0,high,high-low,21.0,rod_fixing,rod_fixing,1.0,166.89500000211407,1554822514198.0,1554822514030.0,BLIND,39.0,173.0,11.0 21.0
29848,11.0,672044.0,1.2,39.0,high,high-low,21.0,rod_fixing,rod_fixing,1.0,130.69000001996756,1554822514334.0,1554822514203.0,BLIND,39.0,136.0,11.0 21.0
29849,11.0,672044.0,1.2,39.0,high,high-low,21.0,rod_fixing,rod_fixing,1.0,156.3449999957811,1554822514496.0,1554822514339.0,BLIND,39.0,161.0,11.0 21.0
29850,11.0,672044.0,1.2,39.0,high,high-low,21.0,rod_fixing,rod_fixing,1.0,143.05499999318272,1554822514643.0,1554822514500.0,BLIND,39.0,147.0,11.0 21.0
30155,3.0,672044.0,0.3,39.0,low,high-low,12.0,rod_fixing,rod_fixing,1.0,1019.1049999848474,1554822657423.0,1554822656404.0,BLIND,39.0,1023.0,3.0 12.0
30156,3.0,672044.0,0.3,39.0,low,high-low,12.0,rod_fixing,rod_fixing,1.0,124.89999999525023,1554822657552.0,1554822657427.0,BLIND,39.0,129.0,3.0 12.0
30157,3.0,672044.0,0.3,39.0,low,high-low,12.0,rod_fixing,rod_fixing,1.0,126.82999999378806,1554822657683.0,1554822657556.0,BLIND,39.0,131.0,3.0 12.0
30158,3.0,672044.0,0.3,39.0,low,high-low,12.0,rod_fixing,rod_fixing,1.0,161.72000000369738,1554822657849.0,1554822657687.0,BLIND,39.0,166.0,3.0 12.0
30159,3.0,672044.0,0.3,39.0,low,high-low,12.0,rod_fixing,rod_fixing,1.0,150.4399999976158,1554822658004.0,1554822657853.0,BLIND,39.0,155.0,3.0 12.0
30160,3.0,672044.0,0.3,39.0,low,high-low,12.0,rod_fixing,rod_fixing,1.0,147.21000002464282,1554822658156.0,1554822658008.0,BLIND,39.0,151.0,3.0 12.0
30161,3.0,672044.0,0.3,39.0,low,high-low,12.0,rod_fixing,rod_fixing,1.0,160.70999999647032,1554822658321.0,1554822658159.0,BLIND,39.0,166.0,3.0 12.0
30459,7.0,672044.0,0.7,39.0,low,high-low,12.0,rod_fixing,rod_fixing,1.0,917.0000000158324,1554822709708.0,1554822708790.0,BLIND,39.0,921.0,7.0 12.0
30460,7.0,672044.0,0.7,39.0,low,high-low,12.0,rod_fixing,rod_fixing,1.0,139.29999998072162,1554822709851.0,1554822709711.0,BLIND,39.0,144.0,7.0 12.0
30461,7.0,672044.0,0.7,39.0,low,high-low,12.0,rod_fixing,rod_fixing,1.0,133.6449999944307,1554822709989.0,1554822709855.0,BLIND,39.0,138.0,7.0 12.0
30462,7.0,672044.0,0.7,39.0,low,high-low,12.0,rod_fixing,rod_fixing,1.0,153.96499997586943,1554822710147.0,1554822709993.0,BLIND,39.0,158.0,7.0 12.0
30463,7.0,672044.0,0.7,39.0,low,high-low,12.0,rod_fixing,rod_fixing,1.0,147.80999999493358,1554822710300.0,1554822710151.0,BLIND,39.0,153.0,7.0 12.0
30464,7.0,672044.0,0.7,39.0,low,high-low,12.0,rod_fixing,rod_fixing,1.0,151.77000002586286,1554822710456.0,1554822710304.0,BLIND,39.0,157.0,7.0 12.0
30465,7.0,672044.0,0.7,39.0,low,high-low,12.0,rod_fixing,rod_fixing,1.0,143.42500001657754,1554822710605.0,1554822710461.0,BLIND,39.0,148.0,7.0 12.0
30748,11.0,672044.0,2.5,39.0,low,high-low,12.0,rod_fixing,rod_fixing,1.0,910.2049999928568,1554822761936.0,1554822761025.0,BLIND,39.0,915.0,11.0 12.0
30749,11.0,672044.0,2.5,39.0,low,high-low,12.0,rod_fixing,rod_fixing,1.0,134.24500002292916,1554822762075.0,1554822761940.0,BLIND,39.0,140.0,11.0 12.0
30750,11.0,672044.0,2.5,39.0,low,high-low,12.0,rod_fixing,rod_fixing,1.0,158.95000001182783,1554822762240.0,1554822762080.0,BLIND,39.0,165.0,11.0 12.0
30751,11.0,672044.0,2.5,39.0,low,high-low,12.0,rod_fixing,rod_fixing,1.0,145.0149999873247,1554822762390.0,1554822762245.0,BLIND,39.0,150.0,11.0 12.0
30752,11.0,672044.0,2.5,39.0,low,high-low,12.0,rod_fixing,rod_fixing,1.0,147.50500000081956,1554822762543.0,1554822762395.0,BLIND,39.0,152.0,11.0 12.0
30753,11.0,672044.0,2.5,39.0,low,high-low,12.0,rod_fixing,rod_fixing,1.0,157.31500001857054,1554822762705.0,1554822762547.0,BLIND,39.0,162.0,11.0 12.0
30754,11.0,672044.0,2.5,39.0,low,high-low,12.0,rod_fixing,rod_fixing,1.0,140.22499998100102,1554822762850.0,1554822762709.0,BLIND,39.0,145.0,11.0 12.0
31129,4.0,672044.0,0.3,39.0,low,high-low,22.0,rod_fixing,rod_fixing,1.0,1254.1849999979604,1554822842345.0,1554822841089.0,BLIND,39.0,1259.0,4.0 22.0
31130,4.0,672044.0,0.3,39.0,low,high-low,22.0,rod_fixing,rod_fixing,1.0,141.39499998418614,1554822842490.0,1554822842348.0,BLIND,39.0,146.0,4.0 22.0
31131,4.0,672044.0,0.3,39.0,low,high-low,22.0,rod_fixing,rod_fixing,1.0,153.33500000997446,1554822842648.0,1554822842494.0,BLIND,39.0,159.0,4.0 22.0
31132,4.0,672044.0,0.3,39.0,low,high-low,22.0,rod_fixing,rod_fixing,1.0,140.24999999674037,1554822842794.0,1554822842653.0,BLIND,39.0,145.0,4.0 22.0
31133,4.0,672044.0,0.3,39.0,low,high-low,22.0,rod_fixing,rod_fixing,1.0,147.43000001180917,1554822842947.0,1554822842798.0,BLIND,39.0,153.0,4.0 22.0
31134,4.0,672044.0,0.3,39.0,low,high-low,22.0,rod_fixing,rod_fixing,1.0,142.1799999952782,1554822843094.0,1554822842951.0,BLIND,39.0,148.0,4.0 22.0
31135,4.0,672044.0,0.3,39.0,low,high-low,22.0,rod_fixing,rod_fixing,1.0,166.69500002171844,1554822843267.0,1554822843099.0,BLIND,39.0,173.0,4.0 22.0
31444,8.0,672044.0,0.7,39.0,low,high-low,22.0,rod_fixing,rod_fixing,1.0,938.9749999972992,1554822894455.0,1554822893516.0,BLIND,39.0,943.0,8.0 22.0
31445,8.0,672044.0,0.7,39.0,low,high-low,22.0,rod_fixing,rod_fixing,1.0,132.84500001464042,1554822894592.0,1554822894459.0,BLIND,39.0,139.0,8.0 22.0
31446,8.0,672044.0,0.7,39.0,low,high-low,22.0,rod_fixing,rod_fixing,1.0,151.18499999516644,1554822894749.0,1554822894598.0,BLIND,39.0,157.0,8.0 22.0
31447,8.0,672044.0,0.7,39.0,low,high-low,22.0,rod_fixing,rod_fixing,1.0,151.05000001494773,1554822894906.0,1554822894755.0,BLIND,39.0,157.0,8.0 22.0
31448,8.0,672044.0,0.7,39.0,low,high-low,22.0,rod_fixing,rod_fixing,1.0,141.79500000318512,1554822895054.0,1554822894912.0,BLIND,39.0,147.0,8.0 22.0
31449,8.0,672044.0,0.7,39.0,low,high-low,22.0,rod_fixing,rod_fixing,1.0,161.98500001337382,1554822895221.0,1554822895059.0,BLIND,39.0,168.0,8.0 22.0
31450,8.0,672044.0,0.7,39.0,low,high-low,22.0,rod_fixing,rod_fixing,1.0,159.14000000338999,1554822895386.0,1554822895227.0,BLIND,39.0,164.0,8.0 22.0
31663,11.0,672044.0,1.2,39.0,low,high-low,22.0,rod_fixing,rod_fixing,1.0,905.464999988908,1554822933654.0,1554822932748.0,BLIND,39.0,910.0,11.0 22.0
31664,11.0,672044.0,1.2,39.0,low,high-low,22.0,rod_fixing,rod_fixing,1.0,141.34000000194646,1554822933801.0,1554822933658.0,BLIND,39.0,149.0,11.0 22.0
31665,11.0,672044.0,1.2,39.0,low,high-low,22.0,rod_fixing,rod_fixing,1.0,143.11000000452626,1554822933950.0,1554822933807.0,BLIND,39.0,149.0,11.0 22.0
31666,11.0,672044.0,1.2,39.0,low,high-low,22.0,rod_fixing,rod_fixing,1.0,143.02499999757856,1554822934100.0,1554822933956.0,BLIND,39.0,149.0,11.0 22.0
31667,11.0,672044.0,1.2,39.0,low,high-low,22.0,rod_fixing,rod_fixing,1.0,155.7850000099279,1554822934261.0,1554822934105.0,BLIND,39.0,161.0,11.0 22.0
31668,11.0,672044.0,1.2,39.0,low,high-low,22.0,rod_fixing,rod_fixing,1.0,157.68500001286156,1554822934425.0,1554822934266.0,BLIND,39.0,164.0,11.0 22.0
31669,11.0,672044.0,1.2,39.0,low,high-low,22.0,rod_fixing,rod_fixing,1.0,163.4800000174437,1554822934594.0,1554822934430.0,BLIND,39.0,169.0,11.0 22.0
31983,3.0,672045.0,1.2,39.0,high,high-low,11.0,rod_fixing,rod_fixing,1.0,824.0,1554822320440.0,1554822319614.0,BLIND,39.0,833.0,3.0 11.0
31984,3.0,672045.0,1.2,39.0,high,high-low,11.0,rod_fixing,rod_fixing,1.0,187.0,1554822320635.0,1554822320447.0,BLIND,39.0,195.0,3.0 11.0
31985,3.0,672045.0,1.2,39.0,high,high-low,11.0,rod_fixing,rod_fixing,1.0,115.0,1554822320760.0,1554822320642.0,BLIND,39.0,122.0,3.0 11.0
31986,3.0,672045.0,1.2,39.0,high,high-low,11.0,rod_fixing,rod_fixing,1.0,130.0,1554822320897.0,1554822320764.0,BLIND,39.0,136.0,3.0 11.0
31987,3.0,672045.0,1.2,39.0,high,high-low,11.0,rod_fixing,rod_fixing,1.0,150.0,1554822321050.0,1554822320900.0,BLIND,39.0,157.0,3.0 11.0
31988,3.0,672045.0,1.2,39.0,high,high-low,11.0,rod_fixing,rod_fixing,1.0,137.0,1554822321195.0,1554822321057.0,BLIND,39.0,144.0,3.0 11.0
31989,3.0,672045.0,1.2,39.0,high,high-low,11.0,rod_fixing,rod_fixing,1.0,128.0,1554822321333.0,1554822321201.0,BLIND,39.0,139.0,3.0 11.0
32338,7.0,672045.0,0.7,39.0,high,high-low,11.0,rod_fixing,rod_fixing,1.0,1273.0,1554822373185.0,1554822371910.0,BLIND,39.0,1286.0,7.0 11.0
32339,7.0,672045.0,0.7,39.0,high,high-low,11.0,rod_fixing,rod_fixing,1.0,463.0,1554822373661.0,1554822373196.0,BLIND,39.0,474.0,7.0 11.0
32340,7.0,672045.0,0.7,39.0,high,high-low,11.0,rod_fixing,rod_fixing,1.0,157.0,1554822373827.0,1554822373670.0,BLIND,39.0,166.0,7.0 11.0
32341,7.0,672045.0,0.7,39.0,high,high-low,11.0,rod_fixing,rod_fixing,1.0,99.0,1554822373937.0,1554822373836.0,BLIND,39.0,111.0,7.0 11.0
32342,7.0,672045.0,0.7,39.0,high,high-low,11.0,rod_fixing,rod_fixing,1.0,137.0,1554822374086.0,1554822373947.0,BLIND,39.0,146.0,7.0 11.0
32343,7.0,672045.0,0.7,39.0,high,high-low,11.0,rod_fixing,rod_fixing,1.0,134.0,1554822374227.0,1554822374093.0,BLIND,39.0,143.0,7.0 11.0
32344,7.0,672045.0,0.7,39.0,high,high-low,11.0,rod_fixing,rod_fixing,1.0,123.0,1554822374361.0,1554822374236.0,BLIND,39.0,133.0,7.0 11.0
32692,11.0,672045.0,0.1,39.0,high,high-low,11.0,rod_fixing,rod_fixing,1.0,874.0,1554822425167.0,1554822424292.0,BLIND,39.0,886.0,11.0 11.0
32693,11.0,672045.0,0.1,39.0,high,high-low,11.0,rod_fixing,rod_fixing,1.0,116.0,1554822425295.0,1554822425178.0,BLIND,39.0,125.0,11.0 11.0
32694,11.0,672045.0,0.1,39.0,high,high-low,11.0,rod_fixing,rod_fixing,1.0,104.0,1554822425409.0,1554822425303.0,BLIND,39.0,111.0,11.0 11.0
32695,11.0,672045.0,0.1,39.0,high,high-low,11.0,rod_fixing,rod_fixing,1.0,108.0,1554822425525.0,1554822425414.0,BLIND,39.0,122.0,11.0 11.0
32696,11.0,672045.0,0.1,39.0,high,high-low,11.0,rod_fixing,rod_fixing,1.0,138.0,1554822425675.0,1554822425536.0,BLIND,39.0,151.0,11.0 11.0
32697,11.0,672045.0,0.1,39.0,high,high-low,11.0,rod_fixing,rod_fixing,1.0,140.0,1554822425827.0,1554822425687.0,BLIND,39.0,152.0,11.0 11.0
32698,11.0,672045.0,0.1,39.0,high,high-low,11.0,rod_fixing,rod_fixing,1.0,106.0,1554822425945.0,1554822425839.0,BLIND,39.0,113.0,11.0 11.0
33141,4.0,672045.0,1.2,39.0,high,high-low,21.0,rod_fixing,rod_fixing,1.0,629.0,1554822504580.0,1554822503949.0,BLIND,39.0,645.0,4.0 21.0
33142,4.0,672045.0,1.2,39.0,high,high-low,21.0,rod_fixing,rod_fixing,1.0,273.0,1554822504869.0,1554822504594.0,BLIND,39.0,292.0,4.0 21.0
33143,4.0,672045.0,1.2,39.0,high,high-low,21.0,rod_fixing,rod_fixing,1.0,127.0,1554822505014.0,1554822504886.0,BLIND,39.0,141.0,4.0 21.0
33144,4.0,672045.0,1.2,39.0,high,high-low,21.0,rod_fixing,rod_fixing,1.0,111.0,1554822505140.0,1554822505027.0,BLIND,39.0,120.0,4.0 21.0
33145,4.0,672045.0,1.2,39.0,high,high-low,21.0,rod_fixing,rod_fixing,1.0,152.0,1554822505301.0,1554822505147.0,BLIND,39.0,165.0,4.0 21.0
33146,4.0,672045.0,1.2,39.0,high,high-low,21.0,rod_fixing,rod_fixing,1.0,127.0,1554822505441.0,1554822505312.0,BLIND,39.0,144.0,4.0 21.0
33490,8.0,672045.0,0.7,39.0,high,high-low,21.0,rod_fixing,rod_fixing,1.0,666.0,1554822557084.0,1554822556417.0,BLIND,39.0,686.0,8.0 21.0
33491,8.0,672045.0,0.7,39.0,high,high-low,21.0,rod_fixing,rod_fixing,1.0,229.0,1554822557333.0,1554822557103.0,BLIND,39.0,246.0,8.0 21.0
33492,8.0,672045.0,0.7,39.0,high,high-low,21.0,rod_fixing,rod_fixing,1.0,109.0,1554822557460.0,1554822557349.0,BLIND,39.0,127.0,8.0 21.0
33493,8.0,672045.0,0.7,39.0,high,high-low,21.0,rod_fixing,rod_fixing,1.0,134.0,1554822557613.0,1554822557476.0,BLIND,39.0,157.0,8.0 21.0
33494,8.0,672045.0,0.7,39.0,high,high-low,21.0,rod_fixing,rod_fixing,1.0,109.0,1554822557743.0,1554822557633.0,BLIND,39.0,126.0,8.0 21.0
33495,8.0,672045.0,0.7,39.0,high,high-low,21.0,rod_fixing,rod_fixing,1.0,149.0,1554822557908.0,1554822557759.0,BLIND,39.0,173.0,8.0 21.0
33496,8.0,672045.0,0.7,39.0,high,high-low,21.0,rod_fixing,rod_fixing,1.0,90.0,1554822558024.0,1554822557932.0,BLIND,39.0,111.0,8.0 21.0
33742,11.0,672045.0,1.2,39.0,high,high-low,21.0,rod_fixing,rod_fixing,1.0,683.0,1554822596345.0,1554822595660.0,BLIND,39.0,699.0,11.0 21.0
33743,11.0,672045.0,1.2,39.0,high,high-low,21.0,rod_fixing,rod_fixing,1.0,155.0,1554822596516.0,1554822596359.0,BLIND,39.0,174.0,11.0 21.0
33744,11.0,672045.0,1.2,39.0,high,high-low,21.0,rod_fixing,rod_fixing,1.0,215.0,1554822596750.0,1554822596533.0,BLIND,39.0,236.0,11.0 21.0
33745,11.0,672045.0,1.2,39.0,high,high-low,21.0,rod_fixing,rod_fixing,1.0,100.0,1554822596870.0,1554822596769.0,BLIND,39.0,110.0,11.0 21.0
34090,3.0,672045.0,1.2,39.0,low,high-low,12.0,rod_fixing,rod_fixing,1.0,606.0,1554822681570.0,1554822680961.0,BLIND,39.0,630.0,3.0 12.0
34091,3.0,672045.0,1.2,39.0,low,high-low,12.0,rod_fixing,rod_fixing,1.0,202.0,1554822681795.0,1554822681591.0,BLIND,39.0,222.0,3.0 12.0
34092,3.0,672045.0,1.2,39.0,low,high-low,12.0,rod_fixing,rod_fixing,1.0,120.0,1554822681934.0,1554822681813.0,BLIND,39.0,140.0,3.0 12.0
34093,3.0,672045.0,1.2,39.0,low,high-low,12.0,rod_fixing,rod_fixing,1.0,125.0,1554822682079.0,1554822681953.0,BLIND,39.0,141.0,3.0 12.0
34094,3.0,672045.0,1.2,39.0,low,high-low,12.0,rod_fixing,rod_fixing,1.0,147.0,1554822682242.0,1554822682094.0,BLIND,39.0,177.0,3.0 12.0
34095,3.0,672045.0,1.2,39.0,low,high-low,12.0,rod_fixing,rod_fixing,1.0,188.0,1554822682460.0,1554822682271.0,BLIND,39.0,224.0,3.0 12.0
34433,7.0,672045.0,0.7,39.0,low,high-low,12.0,rod_fixing,rod_fixing,1.0,627.0,1554822734126.0,1554822733496.0,BLIND,39.0,652.0,7.0 12.0
34434,7.0,672045.0,0.7,39.0,low,high-low,12.0,rod_fixing,rod_fixing,1.0,163.0,1554822734312.0,1554822734148.0,BLIND,39.0,186.0,7.0 12.0
34435,7.0,672045.0,0.7,39.0,low,high-low,12.0,rod_fixing,rod_fixing,1.0,91.0,1554822734427.0,1554822734334.0,BLIND,39.0,107.0,7.0 12.0
34436,7.0,672045.0,0.7,39.0,low,high-low,12.0,rod_fixing,rod_fixing,1.0,129.0,1554822734570.0,1554822734441.0,BLIND,39.0,145.0,7.0 12.0
34437,7.0,672045.0,0.7,39.0,low,high-low,12.0,rod_fixing,rod_fixing,1.0,133.0,1554822734721.0,1554822734586.0,BLIND,39.0,154.0,7.0 12.0
34438,7.0,672045.0,0.7,39.0,low,high-low,12.0,rod_fixing,rod_fixing,1.0,226.0,1554822734967.0,1554822734740.0,BLIND,39.0,248.0,7.0 12.0
34439,7.0,672045.0,0.7,39.0,low,high-low,12.0,rod_fixing,rod_fixing,1.0,119.0,1554822735108.0,1554822734988.0,BLIND,39.0,139.0,7.0 12.0
34790,11.0,672045.0,0.1,39.0,low,high-low,12.0,rod_fixing,rod_fixing,1.0,478.0,1554822786380.0,1554822785900.0,BLIND,39.0,499.0,11.0 12.0
34791,11.0,672045.0,0.1,39.0,low,high-low,12.0,rod_fixing,rod_fixing,1.0,275.0,1554822786675.0,1554822786399.0,BLIND,39.0,300.0,11.0 12.0
34792,11.0,672045.0,0.1,39.0,low,high-low,12.0,rod_fixing,rod_fixing,1.0,94.0,1554822786796.0,1554822786699.0,BLIND,39.0,119.0,11.0 12.0
34793,11.0,672045.0,0.1,39.0,low,high-low,12.0,rod_fixing,rod_fixing,1.0,111.0,1554822786930.0,1554822786818.0,BLIND,39.0,132.0,11.0 12.0
34794,11.0,672045.0,0.1,39.0,low,high-low,12.0,rod_fixing,rod_fixing,1.0,102.0,1554822787054.0,1554822786950.0,BLIND,39.0,118.0,11.0 12.0
34795,11.0,672045.0,0.1,39.0,low,high-low,12.0,rod_fixing,rod_fixing,1.0,117.0,1554822787188.0,1554822787068.0,BLIND,39.0,136.0,11.0 12.0
34796,11.0,672045.0,0.1,39.0,low,high-low,12.0,rod_fixing,rod_fixing,1.0,116.0,1554822787322.0,1554822787204.0,BLIND,39.0,134.0,11.0 12.0
35224,4.0,672045.0,1.2,39.0,low,high-low,22.0,rod_fixing,rod_fixing,1.0,895.0,1554822866639.0,1554822865744.0,BLIND,39.0,920.0,4.0 22.0
35225,4.0,672045.0,1.2,39.0,low,high-low,22.0,rod_fixing,rod_fixing,1.0,235.0,1554822866899.0,1554822866664.0,BLIND,39.0,261.0,4.0 22.0
35226,4.0,672045.0,1.2,39.0,low,high-low,22.0,rod_fixing,rod_fixing,1.0,175.0,1554822867102.0,1554822866925.0,BLIND,39.0,199.0,4.0 22.0
35227,4.0,672045.0,1.2,39.0,low,high-low,22.0,rod_fixing,rod_fixing,1.0,119.0,1554822867243.0,1554822867124.0,BLIND,39.0,145.0,4.0 22.0
35228,4.0,672045.0,1.2,39.0,low,high-low,22.0,rod_fixing,rod_fixing,1.0,122.0,1554822867393.0,1554822867269.0,BLIND,39.0,145.0,4.0 22.0
35229,4.0,672045.0,1.2,39.0,low,high-low,22.0,rod_fixing,rod_fixing,1.0,133.0,1554822867549.0,1554822867414.0,BLIND,39.0,160.0,4.0 22.0
35230,4.0,672045.0,1.2,39.0,low,high-low,22.0,rod_fixing,rod_fixing,1.0,94.0,1554822867670.0,1554822867574.0,BLIND,39.0,113.0,4.0 22.0
35573,8.0,672045.0,0.7,39.0,low,high-low,22.0,rod_fixing,rod_fixing,1.0,554.0,1554822918738.0,1554822918182.0,BLIND,39.0,582.0,8.0 22.0
35574,8.0,672045.0,0.7,39.0,low,high-low,22.0,rod_fixing,rod_fixing,1.0,151.0,1554822918916.0,1554822918764.0,BLIND,39.0,172.0,8.0 22.0
35575,8.0,672045.0,0.7,39.0,low,high-low,22.0,rod_fixing,rod_fixing,1.0,111.0,1554822919048.0,1554822918936.0,BLIND,39.0,130.0,8.0 22.0
35576,8.0,672045.0,0.7,39.0,low,high-low,22.0,rod_fixing,rod_fixing,1.0,118.0,1554822919187.0,1554822919066.0,BLIND,39.0,144.0,8.0 22.0
35577,8.0,672045.0,0.7,39.0,low,high-low,22.0,rod_fixing,rod_fixing,1.0,96.0,1554822919308.0,1554822919210.0,BLIND,39.0,122.0,8.0 22.0
35578,8.0,672045.0,0.7,39.0,low,high-low,22.0,rod_fixing,rod_fixing,1.0,121.0,1554822919455.0,1554822919332.0,BLIND,39.0,142.0,8.0 22.0
35834,11.0,672045.0,1.2,39.0,low,high-low,22.0,rod_fixing,rod_fixing,1.0,755.0,1554822958368.0,1554822957610.0,BLIND,39.0,785.0,11.0 22.0
35835,11.0,672045.0,1.2,39.0,low,high-low,22.0,rod_fixing,rod_fixing,1.0,161.0,1554822958558.0,1554822958395.0,BLIND,39.0,184.0,11.0 22.0
35836,11.0,672045.0,1.2,39.0,low,high-low,22.0,rod_fixing,rod_fixing,1.0,117.0,1554822958698.0,1554822958579.0,BLIND,39.0,140.0,11.0 22.0
35837,11.0,672045.0,1.2,39.0,low,high-low,22.0,rod_fixing,rod_fixing,1.0,124.0,1554822958843.0,1554822958719.0,BLIND,39.0,142.0,11.0 22.0
35838,11.0,672045.0,1.2,39.0,low,high-low,22.0,rod_fixing,rod_fixing,1.0,127.0,1554822958990.0,1554822958861.0,BLIND,39.0,154.0,11.0 22.0
35839,11.0,672045.0,1.2,39.0,low,high-low,22.0,rod_fixing,rod_fixing,1.0,118.0,1554822959134.0,1554822959015.0,BLIND,39.0,138.0,11.0 22.0
36190,3.0,672581.0,1.2,39.0,high,high-low,11.0,rod_fixing,rod_fixing,1.0,850.0,1554828485745.0,1554828484894.0,BLIND,39.0,854.0,3.0 11.0
