index,trial_index,id,price_displayed,key pressed,environment,order,round_instance,task,function_id,quality_check,builtin_rt,end_time,start_time,Participant Public ID,latency
105219,3.0,668220.0,1.2,39.0,low,low-high,11.0,rod_fixing,rod_fixing,1.0,1318.5549999998332,1554474856054.0,1554474854733.0,BLIND,1325.0
105220,3.0,668220.0,1.2,39.0,low,low-high,11.0,rod_fixing,rod_fixing,1.0,148.73500000021886,1554474856208.0,1554474856058.0,BLIND,154.0
105221,3.0,668220.0,1.2,39.0,low,low-high,11.0,rod_fixing,rod_fixing,1.0,168.56000000007043,1554474856381.0,1554474856212.0,BLIND,172.0
105222,3.0,668220.0,1.2,39.0,low,low-high,11.0,rod_fixing,rod_fixing,1.0,150.41500000006639,1554474856535.0,1554474856384.0,BLIND,154.0
105223,3.0,668220.0,1.2,39.0,low,low-high,11.0,rod_fixing,rod_fixing,1.0,179.21500000011292,1554474856717.0,1554474856538.0,BLIND,182.0
105224,3.0,668220.0,1.2,39.0,low,low-high,11.0,rod_fixing,rod_fixing,1.0,169.54000000032102,1554474856890.0,1554474856720.0,BLIND,175.0
105225,3.0,668220.0,1.2,39.0,low,low-high,11.0,rod_fixing,rod_fixing,1.0,155.95999999959895,1554474857052.0,1554474856895.0,BLIND,160.0
105226,3.0,668220.0,1.2,39.0,low,low-high,11.0,rod_fixing,rod_fixing,1.0,169.17999999986202,1554474857225.0,1554474857055.0,BLIND,182.0
105541,7.0,668220.0,0.3,39.0,low,low-high,11.0,rod_fixing,rod_fixing,1.0,1066.6249999999272,1554474908069.0,1554474907002.0,BLIND,1071.0
105542,7.0,668220.0,0.3,39.0,low,low-high,11.0,rod_fixing,rod_fixing,1.0,173.64999999971766,1554474908247.0,1554474908073.0,BLIND,178.0
105543,7.0,668220.0,0.3,39.0,low,low-high,11.0,rod_fixing,rod_fixing,1.0,166.5600000001141,1554474908418.0,1554474908251.0,BLIND,171.0
105544,7.0,668220.0,0.3,39.0,low,low-high,11.0,rod_fixing,rod_fixing,1.0,177.20000000008443,1554474908600.0,1554474908422.0,BLIND,182.0
105545,7.0,668220.0,0.3,39.0,low,low-high,11.0,rod_fixing,rod_fixing,1.0,180.6599999999889,1554474908785.0,1554474908604.0,BLIND,184.0
105546,7.0,668220.0,0.3,39.0,low,low-high,11.0,rod_fixing,rod_fixing,1.0,168.15499999983876,1554474908957.0,1554474908788.0,BLIND,174.0
105547,7.0,668220.0,0.3,39.0,low,low-high,11.0,rod_fixing,rod_fixing,1.0,178.1350000001112,1554474909141.0,1554474908962.0,BLIND,183.0
105548,7.0,668220.0,0.3,39.0,low,low-high,11.0,rod_fixing,rod_fixing,1.0,173.00500000010655,1554474909319.0,1554474909145.0,BLIND,187.0
105856,11.0,668220.0,0.7,39.0,low,low-high,11.0,rod_fixing,rod_fixing,1.0,571.4100000000035,1554474959817.0,1554474959245.0,BLIND,576.0
105857,11.0,668220.0,0.7,39.0,low,low-high,11.0,rod_fixing,rod_fixing,1.0,166.4150000001537,1554474959988.0,1554474959821.0,BLIND,172.0
105858,11.0,668220.0,0.7,39.0,low,low-high,11.0,rod_fixing,rod_fixing,1.0,158.17500000001746,1554474960152.0,1554474959993.0,BLIND,163.0
105859,11.0,668220.0,0.7,39.0,low,low-high,11.0,rod_fixing,rod_fixing,1.0,179.41000000017812,1554474960336.0,1554474960156.0,BLIND,186.0
105860,11.0,668220.0,0.7,39.0,low,low-high,11.0,rod_fixing,rod_fixing,1.0,166.1400000002468,1554474960509.0,1554474960342.0,BLIND,171.0
105861,11.0,668220.0,0.7,39.0,low,low-high,11.0,rod_fixing,rod_fixing,1.0,169.5549999999348,1554474960684.0,1554474960513.0,BLIND,175.0
105862,11.0,668220.0,0.7,39.0,low,low-high,11.0,rod_fixing,rod_fixing,1.0,158.39499999993131,1554474960847.0,1554474960688.0,BLIND,334.0
106262,4.0,668220.0,1.8,39.0,low,low-high,21.0,rod_fixing,rod_fixing,1.0,1645.8700000002866,1554475043299.0,1554475041653.0,BLIND,1651.0
106263,4.0,668220.0,1.8,39.0,low,low-high,21.0,rod_fixing,rod_fixing,1.0,166.16000000020722,1554475043471.0,1554475043304.0,BLIND,170.0
106264,4.0,668220.0,1.8,39.0,low,low-high,21.0,rod_fixing,rod_fixing,1.0,158.42000000021653,1554475043633.0,1554475043474.0,BLIND,162.0
106265,4.0,668220.0,1.8,39.0,low,low-high,21.0,rod_fixing,rod_fixing,1.0,169.74500000016997,1554475043807.0,1554475043636.0,BLIND,174.0
106266,4.0,668220.0,1.8,39.0,low,low-high,21.0,rod_fixing,rod_fixing,1.0,180.47999999998137,1554475043991.0,1554475043810.0,BLIND,184.0
106267,4.0,668220.0,1.8,39.0,low,low-high,21.0,rod_fixing,rod_fixing,1.0,173.5950000002049,1554475044168.0,1554475043994.0,BLIND,178.0
106268,4.0,668220.0,1.8,39.0,low,low-high,21.0,rod_fixing,rod_fixing,1.0,189.35499999998137,1554475044362.0,1554475044172.0,BLIND,350.0
106590,8.0,668220.0,0.7,39.0,low,low-high,21.0,rod_fixing,rod_fixing,1.0,886.8900000002467,1554475094828.0,1554475093940.0,BLIND,893.0
106591,8.0,668220.0,0.7,39.0,low,low-high,21.0,rod_fixing,rod_fixing,1.0,167.1500000002561,1554475095001.0,1554475094833.0,BLIND,172.0
106592,8.0,668220.0,0.7,39.0,low,low-high,21.0,rod_fixing,rod_fixing,1.0,182.93000000040047,1554475095189.0,1554475095005.0,BLIND,189.0
106593,8.0,668220.0,0.7,39.0,low,low-high,21.0,rod_fixing,rod_fixing,1.0,166.78000000002794,1554475095361.0,1554475095194.0,BLIND,172.0
106594,8.0,668220.0,0.7,39.0,low,low-high,21.0,rod_fixing,rod_fixing,1.0,168.6949999998324,1554475095535.0,1554475095366.0,BLIND,174.0
106595,8.0,668220.0,0.7,39.0,low,low-high,21.0,rod_fixing,rod_fixing,1.0,166.78499999985797,1554475095708.0,1554475095540.0,BLIND,172.0
106596,8.0,668220.0,0.7,39.0,low,low-high,21.0,rod_fixing,rod_fixing,1.0,148.11499999993245,1554475095860.0,1554475095712.0,BLIND,152.0
106597,8.0,668220.0,0.7,39.0,low,low-high,21.0,rod_fixing,rod_fixing,1.0,178.72499999974391,1554475096043.0,1554475095864.0,BLIND,198.0
106834,11.0,668220.0,1.2,39.0,low,low-high,21.0,rod_fixing,rod_fixing,1.0,910.969999999914,1554475134025.0,1554475133113.0,BLIND,917.0
106835,11.0,668220.0,1.2,39.0,low,low-high,21.0,rod_fixing,rod_fixing,1.0,179.85499999986496,1554475134211.0,1554475134030.0,BLIND,186.0
106836,11.0,668220.0,1.2,39.0,low,low-high,21.0,rod_fixing,rod_fixing,1.0,206.31999999977413,1554475134423.0,1554475134216.0,BLIND,213.0
106837,11.0,668220.0,1.2,39.0,low,low-high,21.0,rod_fixing,rod_fixing,1.0,197.11999999982072,1554475134626.0,1554475134429.0,BLIND,203.0
106838,11.0,668220.0,1.2,39.0,low,low-high,21.0,rod_fixing,rod_fixing,1.0,188.4549999999581,1554475134821.0,1554475134632.0,BLIND,194.0
106839,11.0,668220.0,1.2,39.0,low,low-high,21.0,rod_fixing,rod_fixing,1.0,176.31500000017695,1554475135003.0,1554475134826.0,BLIND,182.0
106840,11.0,668220.0,1.2,39.0,low,low-high,21.0,rod_fixing,rod_fixing,1.0,180.83500000013737,1554475135190.0,1554475135008.0,BLIND,187.0
106841,11.0,668220.0,1.2,39.0,low,low-high,21.0,rod_fixing,rod_fixing,1.0,158.17500000004657,1554475135354.0,1554475135195.0,BLIND,179.0
107185,3.0,668220.0,1.2,39.0,high,high-low,12.0,rod_fixing,rod_fixing,1.0,1303.9349999998813,1554475233176.0,1554475231872.0,BLIND,1310.0
107186,3.0,668220.0,1.2,39.0,high,high-low,12.0,rod_fixing,rod_fixing,1.0,175.3300000000745,1554475233359.0,1554475233182.0,BLIND,183.0
107187,3.0,668220.0,1.2,39.0,high,high-low,12.0,rod_fixing,rod_fixing,1.0,137.09000000020023,1554475233502.0,1554475233365.0,BLIND,142.0
107188,3.0,668220.0,1.2,39.0,high,high-low,12.0,rod_fixing,rod_fixing,1.0,156.4100000000908,1554475233664.0,1554475233507.0,BLIND,162.0
107189,3.0,668220.0,1.2,39.0,high,high-low,12.0,rod_fixing,rod_fixing,1.0,167.62999999994645,1554475233837.0,1554475233669.0,BLIND,174.0
107190,3.0,668220.0,1.2,39.0,high,high-low,12.0,rod_fixing,rod_fixing,1.0,159.94500000029802,1554475234003.0,1554475233843.0,BLIND,166.0
107191,3.0,668220.0,1.2,39.0,high,high-low,12.0,rod_fixing,rod_fixing,1.0,155.26499999989755,1554475234165.0,1554475234009.0,BLIND,162.0
107192,3.0,668220.0,1.2,39.0,high,high-low,12.0,rod_fixing,rod_fixing,1.0,168.1400000002468,1554475234339.0,1554475234171.0,BLIND,192.0
107512,7.0,668220.0,0.3,39.0,high,high-low,12.0,rod_fixing,rod_fixing,1.0,1143.1450000000184,1554475285222.0,1554475284079.0,BLIND,1149.0
107513,7.0,668220.0,0.3,39.0,high,high-low,12.0,rod_fixing,rod_fixing,1.0,145.1449999999604,1554475285374.0,1554475285228.0,BLIND,151.0
107514,7.0,668220.0,0.3,39.0,high,high-low,12.0,rod_fixing,rod_fixing,1.0,148.13000000000466,1554475285528.0,1554475285379.0,BLIND,153.0
107515,7.0,668220.0,0.3,39.0,high,high-low,12.0,rod_fixing,rod_fixing,1.0,179.00999999983466,1554475285712.0,1554475285532.0,BLIND,185.0
107516,7.0,668220.0,0.3,39.0,high,high-low,12.0,rod_fixing,rod_fixing,1.0,158.2250000000931,1554475285875.0,1554475285717.0,BLIND,163.0
107517,7.0,668220.0,0.3,39.0,high,high-low,12.0,rod_fixing,rod_fixing,1.0,158.26999999990218,1554475286039.0,1554475285880.0,BLIND,164.0
107518,7.0,668220.0,0.3,39.0,high,high-low,12.0,rod_fixing,rod_fixing,1.0,171.0299999999697,1554475286215.0,1554475286044.0,BLIND,347.0
107827,11.0,668220.0,0.7,39.0,high,high-low,12.0,rod_fixing,rod_fixing,1.0,1263.5399999999208,1554475337692.0,1554475336427.0,BLIND,1270.0
107828,11.0,668220.0,0.7,39.0,high,high-low,12.0,rod_fixing,rod_fixing,1.0,116.51500000024679,1554475337814.0,1554475337697.0,BLIND,123.0
107829,11.0,668220.0,0.7,39.0,high,high-low,12.0,rod_fixing,rod_fixing,1.0,155.39500000025146,1554475337976.0,1554475337820.0,BLIND,161.0
107830,11.0,668220.0,0.7,39.0,high,high-low,12.0,rod_fixing,rod_fixing,1.0,167.6600000000326,1554475338149.0,1554475337981.0,BLIND,174.0
107831,11.0,668220.0,0.7,39.0,high,high-low,12.0,rod_fixing,rod_fixing,1.0,149.53999999992084,1554475338305.0,1554475338155.0,BLIND,155.0
107832,11.0,668220.0,0.7,39.0,high,high-low,12.0,rod_fixing,rod_fixing,1.0,157.70999999996275,1554475338468.0,1554475338310.0,BLIND,164.0
107833,11.0,668220.0,0.7,39.0,high,high-low,12.0,rod_fixing,rod_fixing,1.0,155.5100000000093,1554475338630.0,1554475338474.0,BLIND,345.0
108222,4.0,668220.0,1.8,39.0,high,high-low,22.0,rod_fixing,rod_fixing,1.0,1081.8949999997858,1554475427104.0,1554475426022.0,BLIND,1089.0
108223,4.0,668220.0,1.8,39.0,high,high-low,22.0,rod_fixing,rod_fixing,1.0,167.46999999985565,1554475427279.0,1554475427111.0,BLIND,177.0
108224,4.0,668220.0,1.8,39.0,high,high-low,22.0,rod_fixing,rod_fixing,1.0,152.92499999993015,1554475427442.0,1554475427288.0,BLIND,158.0
108225,4.0,668220.0,1.8,39.0,high,high-low,22.0,rod_fixing,rod_fixing,1.0,158.93499999993946,1554475427605.0,1554475427446.0,BLIND,169.0
108226,4.0,668220.0,1.8,39.0,high,high-low,22.0,rod_fixing,rod_fixing,1.0,144.05999999959022,1554475427759.0,1554475427615.0,BLIND,150.0
108227,4.0,668220.0,1.8,39.0,high,high-low,22.0,rod_fixing,rod_fixing,1.0,147.23000000009782,1554475427913.0,1554475427765.0,BLIND,154.0
108228,4.0,668220.0,1.8,39.0,high,high-low,22.0,rod_fixing,rod_fixing,1.0,154.6699999999255,1554475428074.0,1554475427919.0,BLIND,340.0
108559,8.0,668220.0,0.7,39.0,high,high-low,22.0,rod_fixing,rod_fixing,1.0,1205.6599999996836,1554475479602.0,1554475478395.0,BLIND,1214.0
108560,8.0,668220.0,0.7,39.0,high,high-low,22.0,rod_fixing,rod_fixing,1.0,166.0400000001537,1554475479775.0,1554475479609.0,BLIND,174.0
108561,8.0,668220.0,0.7,39.0,high,high-low,22.0,rod_fixing,rod_fixing,1.0,156.4100000000326,1554475479940.0,1554475479783.0,BLIND,164.0
108562,8.0,668220.0,0.7,39.0,high,high-low,22.0,rod_fixing,rod_fixing,1.0,166.13999999978114,1554475480113.0,1554475479947.0,BLIND,173.0
108563,8.0,668220.0,0.7,39.0,high,high-low,22.0,rod_fixing,rod_fixing,1.0,156.55000000016295,1554475480277.0,1554475480120.0,BLIND,164.0
108564,8.0,668220.0,0.7,39.0,high,high-low,22.0,rod_fixing,rod_fixing,1.0,160.9299999999348,1554475480446.0,1554475480284.0,BLIND,170.0
108565,8.0,668220.0,0.7,39.0,high,high-low,22.0,rod_fixing,rod_fixing,1.0,174.70000000006985,1554475480629.0,1554475480454.0,BLIND,365.0
108806,11.0,668220.0,1.2,39.0,high,high-low,22.0,rod_fixing,rod_fixing,1.0,828.1349999997765,1554475518484.0,1554475517655.0,BLIND,836.0
108807,11.0,668220.0,1.2,39.0,high,high-low,22.0,rod_fixing,rod_fixing,1.0,136.59499999985565,1554475518628.0,1554475518491.0,BLIND,144.0
108808,11.0,668220.0,1.2,39.0,high,high-low,22.0,rod_fixing,rod_fixing,1.0,166.0449999999255,1554475518802.0,1554475518635.0,BLIND,174.0
108809,11.0,668220.0,1.2,39.0,high,high-low,22.0,rod_fixing,rod_fixing,1.0,165.97999999986496,1554475518975.0,1554475518809.0,BLIND,173.0
108810,11.0,668220.0,1.2,39.0,high,high-low,22.0,rod_fixing,rod_fixing,1.0,155.30500000028402,1554475519138.0,1554475518982.0,BLIND,163.0
108811,11.0,668220.0,1.2,39.0,high,high-low,22.0,rod_fixing,rod_fixing,1.0,159.29999999981374,1554475519305.0,1554475519145.0,BLIND,166.0
108812,11.0,668220.0,1.2,39.0,high,high-low,22.0,rod_fixing,rod_fixing,1.0,136.77999999979508,1554475519449.0,1554475519311.0,BLIND,305.0
109154,3.0,668225.0,0.3,39.0,low,low-high,11.0,rod_fixing,rod_fixing,1.0,750.6800000555812,1554474859521.0,1554474858770.0,BLIND,753.0
109155,3.0,668225.0,0.3,39.0,low,low-high,11.0,rod_fixing,rod_fixing,1.0,205.42499981820583,1554474859729.0,1554474859523.0,BLIND,208.0
109156,3.0,668225.0,0.3,39.0,low,low-high,11.0,rod_fixing,rod_fixing,1.0,149.56000004895031,1554474859881.0,1554474859731.0,BLIND,151.0
109157,3.0,668225.0,0.3,39.0,low,low-high,11.0,rod_fixing,rod_fixing,1.0,166.16500006057322,1554474860049.0,1554474859882.0,BLIND,169.0
109158,3.0,668225.0,0.3,39.0,low,low-high,11.0,rod_fixing,rod_fixing,1.0,301.63499992340803,1554474860353.0,1554474860051.0,BLIND,303.0
109159,3.0,668225.0,0.3,39.0,low,low-high,11.0,rod_fixing,rod_fixing,1.0,142.2250000759959,1554474860497.0,1554474860354.0,BLIND,144.0
109160,3.0,668225.0,0.3,39.0,low,low-high,11.0,rod_fixing,rod_fixing,1.0,143.0149998050183,1554474860641.0,1554474860498.0,BLIND,144.0
109161,3.0,668225.0,0.3,39.0,low,low-high,11.0,rod_fixing,rod_fixing,1.0,302.2849999833852,1554474860945.0,1554474860642.0,BLIND,308.0
109356,7.0,668225.0,1.2,39.0,low,low-high,11.0,rod_fixing,rod_fixing,1.0,653.6149999592452,1554474911678.0,1554474911024.0,BLIND,655.0
109357,7.0,668225.0,1.2,39.0,low,low-high,11.0,rod_fixing,rod_fixing,1.0,533.9849998708813,1554474912213.0,1554474911679.0,BLIND,536.0
109358,7.0,668225.0,1.2,39.0,low,low-high,11.0,rod_fixing,rod_fixing,1.0,157.71499997936192,1554474912373.0,1554474912215.0,BLIND,160.0
109359,7.0,668225.0,1.2,39.0,low,low-high,11.0,rod_fixing,rod_fixing,1.0,333.8949999306351,1554474912709.0,1554474912375.0,BLIND,336.0
109360,7.0,668225.0,1.2,39.0,low,low-high,11.0,rod_fixing,rod_fixing,1.0,453.75999994575983,1554474913165.0,1554474912711.0,BLIND,456.0
109361,7.0,668225.0,1.2,39.0,low,low-high,11.0,rod_fixing,rod_fixing,1.0,157.6549999881536,1554474913325.0,1554474913167.0,BLIND,160.0
109362,7.0,668225.0,1.2,39.0,low,low-high,11.0,rod_fixing,rod_fixing,1.0,174.50500000268218,1554474913502.0,1554474913327.0,BLIND,176.0
109363,7.0,668225.0,1.2,39.0,low,low-high,11.0,rod_fixing,rod_fixing,1.0,158.5899998899549,1554474913662.0,1554474913503.0,BLIND,165.0
109590,11.0,668225.0,2.5,39.0,low,low-high,11.0,rod_fixing,rod_fixing,1.0,743.0499999318272,1554474964018.0,1554474963275.0,BLIND,745.0
109591,11.0,668225.0,2.5,39.0,low,low-high,11.0,rod_fixing,rod_fixing,1.0,197.914999909699,1554474964218.0,1554474964020.0,BLIND,200.0
109592,11.0,668225.0,2.5,39.0,low,low-high,11.0,rod_fixing,rod_fixing,1.0,157.40000014193356,1554474964378.0,1554474964220.0,BLIND,160.0
109593,11.0,668225.0,2.5,39.0,low,low-high,11.0,rod_fixing,rod_fixing,1.0,134.1949999332428,1554474964514.0,1554474964380.0,BLIND,136.0
109594,11.0,668225.0,2.5,39.0,low,low-high,11.0,rod_fixing,rod_fixing,1.0,126.12999998964371,1554474964642.0,1554474964516.0,BLIND,128.0
109595,11.0,668225.0,2.5,39.0,low,low-high,11.0,rod_fixing,rod_fixing,1.0,125.57499995455144,1554474964770.0,1554474964644.0,BLIND,127.0
109596,11.0,668225.0,2.5,39.0,low,low-high,11.0,rod_fixing,rod_fixing,1.0,126.60499988123777,1554474964898.0,1554474964771.0,BLIND,244.0
109986,4.0,668225.0,1.2,39.0,low,low-high,21.0,rod_fixing,rod_fixing,1.0,591.67500003241,1554475046126.0,1554475045534.0,BLIND,595.0
109987,4.0,668225.0,1.2,39.0,low,low-high,21.0,rod_fixing,rod_fixing,1.0,141.52500010095537,1554475046270.0,1554475046129.0,BLIND,144.0
109988,4.0,668225.0,1.2,39.0,low,low-high,21.0,rod_fixing,rod_fixing,1.0,204.95499996468425,1554475046478.0,1554475046273.0,BLIND,207.0
109989,4.0,668225.0,1.2,39.0,low,low-high,21.0,rod_fixing,rod_fixing,1.0,293.9800000749528,1554475046775.0,1554475046480.0,BLIND,297.0
109990,4.0,668225.0,1.2,39.0,low,low-high,21.0,rod_fixing,rod_fixing,1.0,132.70499999634922,1554475046910.0,1554475046777.0,BLIND,135.0
109991,4.0,668225.0,1.2,39.0,low,low-high,21.0,rod_fixing,rod_fixing,1.0,190.18999999389047,1554475047102.0,1554475046912.0,BLIND,193.0
109992,4.0,668225.0,1.2,39.0,low,low-high,21.0,rod_fixing,rod_fixing,1.0,357.4599998537451,1554475047462.0,1554475047105.0,BLIND,524.0
110277,8.0,668225.0,1.8,39.0,low,low-high,21.0,rod_fixing,rod_fixing,1.0,1190.1249999646095,1554475099082.0,1554475097892.0,BLIND,1193.0
110278,8.0,668225.0,1.8,39.0,low,low-high,21.0,rod_fixing,rod_fixing,1.0,165.49500008113682,1554475099250.0,1554475099085.0,BLIND,168.0
110279,8.0,668225.0,1.8,39.0,low,low-high,21.0,rod_fixing,rod_fixing,1.0,140.99500002339482,1554475099394.0,1554475099253.0,BLIND,143.0
110280,8.0,668225.0,1.8,39.0,low,low-high,21.0,rod_fixing,rod_fixing,1.0,118.58999985270201,1554475099515.0,1554475099396.0,BLIND,121.0
110281,8.0,668225.0,1.8,39.0,low,low-high,21.0,rod_fixing,rod_fixing,1.0,133.66999989375472,1554475099651.0,1554475099517.0,BLIND,135.0
110282,8.0,668225.0,1.8,39.0,low,low-high,21.0,rod_fixing,rod_fixing,1.0,158.12499984167513,1554475099810.0,1554475099652.0,BLIND,160.0
110283,8.0,668225.0,1.8,39.0,low,low-high,21.0,rod_fixing,rod_fixing,1.0,141.7050000745803,1554475099954.0,1554475099812.0,BLIND,293.0
110426,11.0,668225.0,2.5,39.0,low,low-high,21.0,rod_fixing,rod_fixing,1.0,684.3649998772889,1554475137871.0,1554475137187.0,BLIND,687.0
110427,11.0,668225.0,2.5,39.0,low,low-high,21.0,rod_fixing,rod_fixing,1.0,173.35000005550685,1554475138047.0,1554475137874.0,BLIND,176.0
110428,11.0,668225.0,2.5,39.0,low,low-high,21.0,rod_fixing,rod_fixing,1.0,300.8149999659508,1554475138351.0,1554475138050.0,BLIND,304.0
110429,11.0,668225.0,2.5,39.0,low,low-high,21.0,rod_fixing,rod_fixing,1.0,149.3750000372529,1554475138503.0,1554475138354.0,BLIND,152.0
110430,11.0,668225.0,2.5,39.0,low,low-high,21.0,rod_fixing,rod_fixing,1.0,140.67999995313585,1554475138647.0,1554475138506.0,BLIND,143.0
110431,11.0,668225.0,2.5,39.0,low,low-high,21.0,rod_fixing,rod_fixing,1.0,126.43499998375772,1554475138776.0,1554475138649.0,BLIND,129.0
110432,11.0,668225.0,2.5,39.0,low,low-high,21.0,rod_fixing,rod_fixing,1.0,140.90500003658238,1554475138919.0,1554475138778.0,BLIND,143.0
110433,11.0,668225.0,2.5,39.0,low,low-high,21.0,rod_fixing,rod_fixing,1.0,149.98500002548099,1554475139072.0,1554475138921.0,BLIND,159.0
110737,3.0,668225.0,0.3,39.0,high,high-low,12.0,rod_fixing,rod_fixing,1.0,851.2049999553709,1554475210476.0,1554475209624.0,BLIND,854.0
110738,3.0,668225.0,0.3,39.0,high,high-low,12.0,rod_fixing,rod_fixing,1.0,172.64000000432134,1554475210651.0,1554475210478.0,BLIND,176.0
110739,3.0,668225.0,0.3,39.0,high,high-low,12.0,rod_fixing,rod_fixing,1.0,125.50999992527069,1554475210780.0,1554475210654.0,BLIND,128.0
110740,3.0,668225.0,0.3,39.0,high,high-low,12.0,rod_fixing,rod_fixing,1.0,229.3599999975413,1554475211012.0,1554475210782.0,BLIND,232.0
110741,3.0,668225.0,0.3,39.0,high,high-low,12.0,rod_fixing,rod_fixing,1.0,245.43999996967614,1554475211260.0,1554475211014.0,BLIND,248.0
110742,3.0,668225.0,0.3,39.0,high,high-low,12.0,rod_fixing,rod_fixing,1.0,93.21500011719765,1554475211355.0,1554475211262.0,BLIND,95.0
110743,3.0,668225.0,0.3,39.0,high,high-low,12.0,rod_fixing,rod_fixing,1.0,118.45000018365678,1554475211476.0,1554475211357.0,BLIND,255.0
111060,7.0,668225.0,1.2,39.0,high,high-low,12.0,rod_fixing,rod_fixing,1.0,629.444999853149,1554475262457.0,1554475261827.0,BLIND,632.0
111061,7.0,668225.0,1.2,39.0,high,high-low,12.0,rod_fixing,rod_fixing,1.0,117.33999988064171,1554475262576.0,1554475262459.0,BLIND,119.0
111062,7.0,668225.0,1.2,39.0,high,high-low,12.0,rod_fixing,rod_fixing,1.0,133.8700000196695,1554475262712.0,1554475262578.0,BLIND,136.0
111063,7.0,668225.0,1.2,39.0,high,high-low,12.0,rod_fixing,rod_fixing,1.0,110.06999993696807,1554475262824.0,1554475262714.0,BLIND,112.0
111064,7.0,668225.0,1.2,39.0,high,high-low,12.0,rod_fixing,rod_fixing,1.0,142.18500000424686,1554475262968.0,1554475262826.0,BLIND,145.0
111065,7.0,668225.0,1.2,39.0,high,high-low,12.0,rod_fixing,rod_fixing,1.0,125.6699999794364,1554475263097.0,1554475262971.0,BLIND,128.0
111066,7.0,668225.0,1.2,39.0,high,high-low,12.0,rod_fixing,rod_fixing,1.0,116.9950000476092,1554475263216.0,1554475263099.0,BLIND,269.0
111387,11.0,668225.0,2.5,39.0,high,high-low,12.0,rod_fixing,rod_fixing,1.0,611.4600000437349,1554475314846.0,1554475314234.0,BLIND,614.0
111388,11.0,668225.0,2.5,39.0,high,high-low,12.0,rod_fixing,rod_fixing,1.0,157.2800001595169,1554475315006.0,1554475314848.0,BLIND,160.0
111389,11.0,668225.0,2.5,39.0,high,high-low,12.0,rod_fixing,rod_fixing,1.0,132.77000002563,1554475315141.0,1554475315008.0,BLIND,136.0
111390,11.0,668225.0,2.5,39.0,high,high-low,12.0,rod_fixing,rod_fixing,1.0,140.76999993994832,1554475315285.0,1554475315144.0,BLIND,144.0
111391,11.0,668225.0,2.5,39.0,high,high-low,12.0,rod_fixing,rod_fixing,1.0,277.1900000516325,1554475315566.0,1554475315288.0,BLIND,280.0
111392,11.0,668225.0,2.5,39.0,high,high-low,12.0,rod_fixing,rod_fixing,1.0,133.26000003144145,1554475315702.0,1554475315568.0,BLIND,137.0
111393,11.0,668225.0,2.5,39.0,high,high-low,12.0,rod_fixing,rod_fixing,1.0,252.53499997779727,1554475315958.0,1554475315705.0,BLIND,398.0
111773,4.0,668225.0,1.2,39.0,high,high-low,22.0,rod_fixing,rod_fixing,1.0,980.7649999856948,1554475393090.0,1554475392109.0,BLIND,984.0
111774,4.0,668225.0,1.2,39.0,high,high-low,22.0,rod_fixing,rod_fixing,1.0,172.81999997794628,1554475393266.0,1554475393093.0,BLIND,176.0
111775,4.0,668225.0,1.2,39.0,high,high-low,22.0,rod_fixing,rod_fixing,1.0,132.95499980449677,1554475393403.0,1554475393269.0,BLIND,137.0
111776,4.0,668225.0,1.2,39.0,high,high-low,22.0,rod_fixing,rod_fixing,1.0,123.93000000156462,1554475393530.0,1554475393406.0,BLIND,126.0
111777,4.0,668225.0,1.2,39.0,high,high-low,22.0,rod_fixing,rod_fixing,1.0,133.46499996259809,1554475393666.0,1554475393532.0,BLIND,136.0
111778,4.0,668225.0,1.2,39.0,high,high-low,22.0,rod_fixing,rod_fixing,1.0,149.36499996110797,1554475393818.0,1554475393668.0,BLIND,153.0
111779,4.0,668225.0,1.2,39.0,high,high-low,22.0,rod_fixing,rod_fixing,1.0,132.2600001003593,1554475393954.0,1554475393821.0,BLIND,272.0
112122,8.0,668225.0,1.8,39.0,high,high-low,22.0,rod_fixing,rod_fixing,1.0,723.4600000083448,1554475445055.0,1554475444331.0,BLIND,726.0
112123,8.0,668225.0,1.8,39.0,high,high-low,22.0,rod_fixing,rod_fixing,1.0,180.88499992154541,1554475445239.0,1554475445057.0,BLIND,185.0
112124,8.0,668225.0,1.8,39.0,high,high-low,22.0,rod_fixing,rod_fixing,1.0,108.73500001616777,1554475445351.0,1554475445242.0,BLIND,111.0
112125,8.0,668225.0,1.8,39.0,high,high-low,22.0,rod_fixing,rod_fixing,1.0,133.36000009439886,1554475445487.0,1554475445353.0,BLIND,136.0
112126,8.0,668225.0,1.8,39.0,high,high-low,22.0,rod_fixing,rod_fixing,1.0,124.94999985210598,1554475445615.0,1554475445489.0,BLIND,129.0
112127,8.0,668225.0,1.8,39.0,high,high-low,22.0,rod_fixing,rod_fixing,1.0,149.11500015296042,1554475445767.0,1554475445618.0,BLIND,151.0
112128,8.0,668225.0,1.8,39.0,high,high-low,22.0,rod_fixing,rod_fixing,1.0,149.22500005923212,1554475445919.0,1554475445769.0,BLIND,313.0
112354,11.0,668225.0,2.5,39.0,high,high-low,22.0,rod_fixing,rod_fixing,1.0,730.8950000442564,1554475484292.0,1554475483561.0,BLIND,734.0
112355,11.0,668225.0,2.5,39.0,high,high-low,22.0,rod_fixing,rod_fixing,1.0,260.54499996826047,1554475484555.0,1554475484295.0,BLIND,264.0
112356,11.0,668225.0,2.5,39.0,high,high-low,22.0,rod_fixing,rod_fixing,1.0,132.4350000359118,1554475484691.0,1554475484559.0,BLIND,135.0
112357,11.0,668225.0,2.5,39.0,high,high-low,22.0,rod_fixing,rod_fixing,1.0,149.1749999113381,1554475484844.0,1554475484694.0,BLIND,152.0
112358,11.0,668225.0,2.5,39.0,high,high-low,22.0,rod_fixing,rod_fixing,1.0,133.0999999772757,1554475484980.0,1554475484846.0,BLIND,136.0
112359,11.0,668225.0,2.5,39.0,high,high-low,22.0,rod_fixing,rod_fixing,1.0,116.71500001102686,1554475485099.0,1554475484982.0,BLIND,120.0
112360,11.0,668225.0,2.5,39.0,high,high-low,22.0,rod_fixing,rod_fixing,1.0,149.19499983079731,1554475485251.0,1554475485102.0,BLIND,153.0
112361,11.0,668225.0,2.5,39.0,high,high-low,22.0,rod_fixing,rod_fixing,1.0,116.3749999832362,1554475485372.0,1554475485255.0,BLIND,129.0
4394,3.0,668237.0,0.7,39.0,high,high-low,11.0,rod_fixing,rod_fixing,1.0,805.5249999742955,1554475361812.0,1554475361005.0,BLIND,818.0
4395,3.0,668237.0,0.7,39.0,high,high-low,11.0,rod_fixing,rod_fixing,1.0,150.02999996067956,1554475361974.0,1554475361823.0,BLIND,160.0
4396,3.0,668237.0,0.7,39.0,high,high-low,11.0,rod_fixing,rod_fixing,1.0,156.1249999795109,1554475362141.0,1554475361983.0,BLIND,167.0
4397,3.0,668237.0,0.7,39.0,high,high-low,11.0,rod_fixing,rod_fixing,1.0,137.09000003291294,1554475362288.0,1554475362150.0,BLIND,143.0
4398,3.0,668237.0,0.7,39.0,high,high-low,11.0,rod_fixing,rod_fixing,1.0,152.07000001100823,1554475362447.0,1554475362293.0,BLIND,159.0
4399,3.0,668237.0,0.7,39.0,high,high-low,11.0,rod_fixing,rod_fixing,1.0,152.48499996960163,1554475362605.0,1554475362452.0,BLIND,157.0
4400,3.0,668237.0,0.7,39.0,high,high-low,11.0,rod_fixing,rod_fixing,1.0,163.2850000169128,1554475362773.0,1554475362609.0,BLIND,358.0
4683,7.0,668237.0,2.5,39.0,high,high-low,11.0,rod_fixing,rod_fixing,1.0,783.1799999694341,1554475414287.0,1554475413503.0,BLIND,793.0
4684,7.0,668237.0,2.5,39.0,high,high-low,11.0,rod_fixing,rod_fixing,1.0,166.71499999938533,1554475414464.0,1554475414296.0,BLIND,175.0
4685,7.0,668237.0,2.5,39.0,high,high-low,11.0,rod_fixing,rod_fixing,1.0,114.72500005038457,1554475414588.0,1554475414471.0,BLIND,124.0
4686,7.0,668237.0,2.5,39.0,high,high-low,11.0,rod_fixing,rod_fixing,1.0,117.3149999813177,1554475414713.0,1554475414595.0,BLIND,125.0
4687,7.0,668237.0,2.5,39.0,high,high-low,11.0,rod_fixing,rod_fixing,1.0,134.09999996656552,1554475414855.0,1554475414720.0,BLIND,141.0
4688,7.0,668237.0,2.5,39.0,high,high-low,11.0,rod_fixing,rod_fixing,1.0,138.55500001227483,1554475415000.0,1554475414861.0,BLIND,144.0
4689,7.0,668237.0,2.5,39.0,high,high-low,11.0,rod_fixing,rod_fixing,1.0,151.91499999491498,1554475415159.0,1554475415005.0,BLIND,312.0
4980,11.0,668237.0,1.2,39.0,high,high-low,11.0,rod_fixing,rod_fixing,1.0,1084.7700000158509,1554475466932.0,1554475465846.0,BLIND,1092.0
4981,11.0,668237.0,1.2,39.0,high,high-low,11.0,rod_fixing,rod_fixing,1.0,178.88500000117347,1554475467118.0,1554475466938.0,BLIND,186.0
4982,11.0,668237.0,1.2,39.0,high,high-low,11.0,rod_fixing,rod_fixing,1.0,151.67500003008172,1554475467277.0,1554475467124.0,BLIND,161.0
4983,11.0,668237.0,1.2,39.0,high,high-low,11.0,rod_fixing,rod_fixing,1.0,153.11000001383943,1554475467440.0,1554475467285.0,BLIND,161.0
4984,11.0,668237.0,1.2,39.0,high,high-low,11.0,rod_fixing,rod_fixing,1.0,155.37499997299162,1554475467603.0,1554475467446.0,BLIND,164.0
4985,11.0,668237.0,1.2,39.0,high,high-low,11.0,rod_fixing,rod_fixing,1.0,153.62500003539023,1554475467765.0,1554475467610.0,BLIND,162.0
4986,11.0,668237.0,1.2,39.0,high,high-low,11.0,rod_fixing,rod_fixing,1.0,153.4600000013597,1554475467926.0,1554475467772.0,BLIND,353.0
5360,4.0,668237.0,0.3,39.0,high,high-low,21.0,rod_fixing,rod_fixing,1.0,859.6000000252388,1554475542472.0,1554475541612.0,BLIND,875.0
5361,4.0,668237.0,0.3,39.0,high,high-low,21.0,rod_fixing,rod_fixing,1.0,136.9249999988824,1554475542626.0,1554475542487.0,BLIND,147.0
5362,4.0,668237.0,0.3,39.0,high,high-low,21.0,rod_fixing,rod_fixing,1.0,143.21000000927597,1554475542779.0,1554475542634.0,BLIND,154.0
5363,4.0,668237.0,0.3,39.0,high,high-low,21.0,rod_fixing,rod_fixing,1.0,145.96500003244728,1554475542936.0,1554475542788.0,BLIND,160.0
5364,4.0,668237.0,0.3,39.0,high,high-low,21.0,rod_fixing,rod_fixing,1.0,143.37000000523403,1554475543093.0,1554475542948.0,BLIND,157.0
5365,4.0,668237.0,0.3,39.0,high,high-low,21.0,rod_fixing,rod_fixing,1.0,148.75500003108758,1554475543255.0,1554475543105.0,BLIND,158.0
5366,4.0,668237.0,0.3,39.0,high,high-low,21.0,rod_fixing,rod_fixing,1.0,140.40499995462594,1554475543404.0,1554475543263.0,BLIND,151.0
5367,4.0,668237.0,0.3,39.0,high,high-low,21.0,rod_fixing,rod_fixing,1.0,136.65000000037253,1554475543552.0,1554475543414.0,BLIND,177.0
5680,8.0,668237.0,0.3,39.0,high,high-low,21.0,rod_fixing,rod_fixing,1.0,850.1999999862164,1554475594845.0,1554475593993.0,BLIND,863.0
5681,8.0,668237.0,0.3,39.0,high,high-low,21.0,rod_fixing,rod_fixing,1.0,158.52500003529713,1554475595015.0,1554475594856.0,BLIND,169.0
5682,8.0,668237.0,0.3,39.0,high,high-low,21.0,rod_fixing,rod_fixing,1.0,152.83500001532957,1554475595179.0,1554475595025.0,BLIND,159.0
5683,8.0,668237.0,0.3,39.0,high,high-low,21.0,rod_fixing,rod_fixing,1.0,162.36499999649826,1554475595347.0,1554475595184.0,BLIND,172.0
5684,8.0,668237.0,0.3,39.0,high,high-low,21.0,rod_fixing,rod_fixing,1.0,170.64500000560656,1554475595527.0,1554475595356.0,BLIND,181.0
5685,8.0,668237.0,0.3,39.0,high,high-low,21.0,rod_fixing,rod_fixing,1.0,163.07000000961125,1554475595702.0,1554475595537.0,BLIND,176.0
5686,8.0,668237.0,0.3,39.0,high,high-low,21.0,rod_fixing,rod_fixing,1.0,157.26500004529953,1554475595871.0,1554475595713.0,BLIND,170.0
5687,8.0,668237.0,0.3,39.0,high,high-low,21.0,rod_fixing,rod_fixing,1.0,152.95000001788142,1554475596037.0,1554475595883.0,BLIND,188.0
5861,11.0,668237.0,1.8,39.0,high,high-low,21.0,rod_fixing,rod_fixing,1.0,953.7000000127592,1554475634151.0,1554475633196.0,BLIND,967.0
5862,11.0,668237.0,1.8,39.0,high,high-low,21.0,rod_fixing,rod_fixing,1.0,129.14999999338758,1554475634293.0,1554475634163.0,BLIND,143.0
5863,11.0,668237.0,1.8,39.0,high,high-low,21.0,rod_fixing,rod_fixing,1.0,133.9799999841489,1554475634441.0,1554475634306.0,BLIND,145.0
5864,11.0,668237.0,1.8,39.0,high,high-low,21.0,rod_fixing,rod_fixing,1.0,148.25499994913116,1554475634601.0,1554475634451.0,BLIND,162.0
5865,11.0,668237.0,1.8,39.0,high,high-low,21.0,rod_fixing,rod_fixing,1.0,150.4399999976158,1554475634765.0,1554475634613.0,BLIND,164.0
5866,11.0,668237.0,1.8,39.0,high,high-low,21.0,rod_fixing,rod_fixing,1.0,157.1150000090711,1554475634936.0,1554475634777.0,BLIND,173.0
5867,11.0,668237.0,1.8,39.0,high,high-low,21.0,rod_fixing,rod_fixing,1.0,143.09999998658898,1554475635095.0,1554475634950.0,BLIND,309.0
6188,3.0,668237.0,0.7,39.0,low,high-low,12.0,rod_fixing,rod_fixing,1.0,789.0899999765678,1554475722508.0,1554475721718.0,BLIND,804.0
6189,3.0,668237.0,0.7,39.0,low,high-low,12.0,rod_fixing,rod_fixing,1.0,140.76999999815598,1554475722664.0,1554475722522.0,BLIND,156.0
6190,3.0,668237.0,0.7,39.0,low,high-low,12.0,rod_fixing,rod_fixing,1.0,142.72499998332933,1554475722822.0,1554475722678.0,BLIND,154.0
6191,3.0,668237.0,0.7,39.0,low,high-low,12.0,rod_fixing,rod_fixing,1.0,128.00999998580664,1554475722961.0,1554475722832.0,BLIND,139.0
6192,3.0,668237.0,0.7,39.0,low,high-low,12.0,rod_fixing,rod_fixing,1.0,150.71000001626092,1554475723123.0,1554475722971.0,BLIND,160.0
6193,3.0,668237.0,0.7,39.0,low,high-low,12.0,rod_fixing,rod_fixing,1.0,138.40499997604638,1554475723270.0,1554475723131.0,BLIND,152.0
6194,3.0,668237.0,0.7,39.0,low,high-low,12.0,rod_fixing,rod_fixing,1.0,132.48000002931803,1554475723417.0,1554475723283.0,BLIND,314.0
6477,7.0,668237.0,2.5,39.0,low,high-low,12.0,rod_fixing,rod_fixing,1.0,782.5900000170806,1554475774731.0,1554475773947.0,BLIND,800.0
6478,7.0,668237.0,2.5,39.0,low,high-low,12.0,rod_fixing,rod_fixing,1.0,137.9949999973178,1554475774886.0,1554475774747.0,BLIND,154.0
6479,7.0,668237.0,2.5,39.0,low,high-low,12.0,rod_fixing,rod_fixing,1.0,157.6350000104867,1554475775060.0,1554475774901.0,BLIND,173.0
6480,7.0,668237.0,2.5,39.0,low,high-low,12.0,rod_fixing,rod_fixing,1.0,134.9599999957718,1554475775210.0,1554475775074.0,BLIND,149.0
6481,7.0,668237.0,2.5,39.0,low,high-low,12.0,rod_fixing,rod_fixing,1.0,140.11500001652166,1554475775363.0,1554475775223.0,BLIND,154.0
6482,7.0,668237.0,2.5,39.0,low,high-low,12.0,rod_fixing,rod_fixing,1.0,121.21500005014241,1554475775500.0,1554475775377.0,BLIND,134.0
6483,7.0,668237.0,2.5,39.0,low,high-low,12.0,rod_fixing,rod_fixing,1.0,112.76500002713873,1554475775625.0,1554475775511.0,BLIND,301.0
6775,11.0,668237.0,1.2,39.0,low,high-low,12.0,rod_fixing,rod_fixing,1.0,936.9599999627098,1554475827456.0,1554475826518.0,BLIND,950.0
6776,11.0,668237.0,1.2,39.0,low,high-low,12.0,rod_fixing,rod_fixing,1.0,133.5500000277534,1554475827603.0,1554475827468.0,BLIND,150.0
6777,11.0,668237.0,1.2,39.0,low,high-low,12.0,rod_fixing,rod_fixing,1.0,144.92000004975125,1554475827764.0,1554475827618.0,BLIND,162.0
6778,11.0,668237.0,1.2,39.0,low,high-low,12.0,rod_fixing,rod_fixing,1.0,134.39500000094995,1554475827915.0,1554475827780.0,BLIND,152.0
6779,11.0,668237.0,1.2,39.0,low,high-low,12.0,rod_fixing,rod_fixing,1.0,143.64000002387908,1554475828076.0,1554475827932.0,BLIND,158.0
6780,11.0,668237.0,1.2,39.0,low,high-low,12.0,rod_fixing,rod_fixing,1.0,141.91999996546656,1554475828234.0,1554475828090.0,BLIND,158.0
6781,11.0,668237.0,1.2,39.0,low,high-low,12.0,rod_fixing,rod_fixing,1.0,141.15000003948808,1554475828391.0,1554475828248.0,BLIND,351.0
7137,4.0,668237.0,0.3,39.0,low,high-low,22.0,rod_fixing,rod_fixing,1.0,871.1999999941327,1554475898578.0,1554475897706.0,BLIND,886.0
7441,8.0,668237.0,0.3,39.0,low,high-low,22.0,rod_fixing,rod_fixing,1.0,948.9649999886752,1554475950997.0,1554475950047.0,BLIND,965.0
7442,8.0,668237.0,0.3,39.0,low,high-low,22.0,rod_fixing,rod_fixing,1.0,161.68000001925975,1554475951175.0,1554475951012.0,BLIND,180.0
7443,8.0,668237.0,0.3,39.0,low,high-low,22.0,rod_fixing,rod_fixing,1.0,207.53499999409541,1554475951401.0,1554475951192.0,BLIND,225.0
7444,8.0,668237.0,0.3,39.0,low,high-low,22.0,rod_fixing,rod_fixing,1.0,204.78500000899655,1554475951622.0,1554475951417.0,BLIND,224.0
7445,8.0,668237.0,0.3,39.0,low,high-low,22.0,rod_fixing,rod_fixing,1.0,181.54000001959503,1554475951823.0,1554475951641.0,BLIND,202.0
7446,8.0,668237.0,0.3,39.0,low,high-low,22.0,rod_fixing,rod_fixing,1.0,174.49499998474494,1554475952019.0,1554475951843.0,BLIND,187.0
7447,8.0,668237.0,0.3,39.0,low,high-low,22.0,rod_fixing,rod_fixing,1.0,195.77500002924356,1554475952227.0,1554475952030.0,BLIND,213.0
7448,8.0,668237.0,0.3,39.0,low,high-low,22.0,rod_fixing,rod_fixing,1.0,191.37999997474256,1554475952436.0,1554475952243.0,BLIND,239.0
7628,11.0,668237.0,1.8,39.0,low,high-low,22.0,rod_fixing,rod_fixing,1.0,898.6949999816716,1554475990264.0,1554475989365.0,BLIND,915.0
7629,11.0,668237.0,1.8,39.0,low,high-low,22.0,rod_fixing,rod_fixing,1.0,170.73000001255426,1554475990452.0,1554475990280.0,BLIND,188.0
7630,11.0,668237.0,1.8,39.0,low,high-low,22.0,rod_fixing,rod_fixing,1.0,128.41000000480562,1554475990598.0,1554475990468.0,BLIND,144.0
7631,11.0,668237.0,1.8,39.0,low,high-low,22.0,rod_fixing,rod_fixing,1.0,153.64000003319234,1554475990767.0,1554475990612.0,BLIND,170.0
7632,11.0,668237.0,1.8,39.0,low,high-low,22.0,rod_fixing,rod_fixing,1.0,145.79500001855197,1554475990929.0,1554475990782.0,BLIND,166.0
7633,11.0,668237.0,1.8,39.0,low,high-low,22.0,rod_fixing,rod_fixing,1.0,152.8800000087358,1554475991102.0,1554475990948.0,BLIND,175.0
7634,11.0,668237.0,1.8,39.0,low,high-low,22.0,rod_fixing,rod_fixing,1.0,143.5850000125356,1554475991268.0,1554475991123.0,BLIND,160.0
186,3.0,668239.0,0.7,39.0,high,high-low,11.0,rod_fixing,rod_fixing,1.0,897.2950000024865,1554475241911.0,1554475241014.0,BLIND,899.0
187,3.0,668239.0,0.7,39.0,high,high-low,11.0,rod_fixing,rod_fixing,1.0,128.7300000039977,1554475242042.0,1554475241913.0,BLIND,130.0
188,3.0,668239.0,0.7,39.0,high,high-low,11.0,rod_fixing,rod_fixing,1.0,127.76999999914551,1554475242171.0,1554475242043.0,BLIND,129.0
189,3.0,668239.0,0.7,39.0,high,high-low,11.0,rod_fixing,rod_fixing,1.0,129.30999999662166,1554475242302.0,1554475242172.0,BLIND,132.0
190,3.0,668239.0,0.7,39.0,high,high-low,11.0,rod_fixing,rod_fixing,1.0,124.27499999466818,1554475242429.0,1554475242304.0,BLIND,127.0
191,3.0,668239.0,0.7,39.0,high,high-low,11.0,rod_fixing,rod_fixing,1.0,129.77499999396971,1554475242561.0,1554475242431.0,BLIND,131.0
192,3.0,668239.0,0.7,39.0,high,high-low,11.0,rod_fixing,rod_fixing,1.0,129.20000000303844,1554475242692.0,1554475242562.0,BLIND,263.0
549,7.0,668239.0,2.5,39.0,high,high-low,11.0,rod_fixing,rod_fixing,1.0,323.4549999979208,1554475293510.0,1554475293186.0,BLIND,325.0
550,7.0,668239.0,2.5,39.0,high,high-low,11.0,rod_fixing,rod_fixing,1.0,257.7700000038021,1554475293769.0,1554475293511.0,BLIND,265.0
551,7.0,668239.0,2.5,39.0,high,high-low,11.0,rod_fixing,rod_fixing,1.0,129.03499999811172,1554475293905.0,1554475293776.0,BLIND,131.0
552,7.0,668239.0,2.5,39.0,high,high-low,11.0,rod_fixing,rod_fixing,1.0,137.8499999991618,1554475294045.0,1554475293907.0,BLIND,139.0
553,7.0,668239.0,2.5,39.0,high,high-low,11.0,rod_fixing,rod_fixing,1.0,135.67999999941094,1554475294182.0,1554475294046.0,BLIND,138.0
554,7.0,668239.0,2.5,39.0,high,high-low,11.0,rod_fixing,rod_fixing,1.0,137.39499999792315,1554475294321.0,1554475294184.0,BLIND,141.0
555,7.0,668239.0,2.5,39.0,high,high-low,11.0,rod_fixing,rod_fixing,1.0,132.64999999955762,1554475294458.0,1554475294325.0,BLIND,134.0
556,7.0,668239.0,2.5,39.0,high,high-low,11.0,rod_fixing,rod_fixing,1.0,132.51499999751104,1554475294592.0,1554475294459.0,BLIND,137.0
897,11.0,668239.0,0.3,39.0,high,high-low,11.0,rod_fixing,rod_fixing,1.0,353.75000000203727,1554475345765.0,1554475345410.0,BLIND,356.0
898,11.0,668239.0,0.3,39.0,high,high-low,11.0,rod_fixing,rod_fixing,1.0,145.80500000010943,1554475345912.0,1554475345766.0,BLIND,148.0
899,11.0,668239.0,0.3,39.0,high,high-low,11.0,rod_fixing,rod_fixing,1.0,125.63500000396743,1554475346040.0,1554475345914.0,BLIND,127.0
900,11.0,668239.0,0.3,39.0,high,high-low,11.0,rod_fixing,rod_fixing,1.0,140.00499999383464,1554475346181.0,1554475346041.0,BLIND,141.0
901,11.0,668239.0,0.3,39.0,high,high-low,11.0,rod_fixing,rod_fixing,1.0,138.0799999969895,1554475346321.0,1554475346182.0,BLIND,140.0
902,11.0,668239.0,0.3,39.0,high,high-low,11.0,rod_fixing,rod_fixing,1.0,140.41500000166707,1554475346462.0,1554475346322.0,BLIND,142.0
903,11.0,668239.0,0.3,39.0,high,high-low,11.0,rod_fixing,rod_fixing,1.0,140.80500000272878,1554475346605.0,1554475346464.0,BLIND,146.0
904,11.0,668239.0,0.3,39.0,high,high-low,11.0,rod_fixing,rod_fixing,1.0,136.87999999820022,1554475346748.0,1554475346610.0,BLIND,142.0
1370,4.0,668239.0,0.1,39.0,high,high-low,21.0,rod_fixing,rod_fixing,1.0,553.090000001248,1554475468560.0,1554475468007.0,BLIND,554.0
1371,4.0,668239.0,0.1,39.0,high,high-low,21.0,rod_fixing,rod_fixing,1.0,115.49999999988357,1554475468677.0,1554475468561.0,BLIND,117.0
1372,4.0,668239.0,0.1,39.0,high,high-low,21.0,rod_fixing,rod_fixing,1.0,121.12499999784632,1554475468800.0,1554475468678.0,BLIND,124.0
1373,4.0,668239.0,0.1,39.0,high,high-low,21.0,rod_fixing,rod_fixing,1.0,135.9950000041863,1554475468938.0,1554475468802.0,BLIND,138.0
1374,4.0,668239.0,0.1,39.0,high,high-low,21.0,rod_fixing,rod_fixing,1.0,127.16000000364149,1554475469068.0,1554475468940.0,BLIND,129.0
1375,4.0,668239.0,0.1,39.0,high,high-low,21.0,rod_fixing,rod_fixing,1.0,129.8049999968498,1554475469200.0,1554475469069.0,BLIND,429.0
1724,8.0,668239.0,0.7,39.0,high,high-low,21.0,rod_fixing,rod_fixing,1.0,774.6449999976903,1554475521166.0,1554475520391.0,BLIND,776.0
1725,8.0,668239.0,0.7,39.0,high,high-low,21.0,rod_fixing,rod_fixing,1.0,136.90499999938766,1554475521304.0,1554475521167.0,BLIND,139.0
1726,8.0,668239.0,0.7,39.0,high,high-low,21.0,rod_fixing,rod_fixing,1.0,112.59500000596745,1554475521418.0,1554475521306.0,BLIND,114.0
1727,8.0,668239.0,0.7,39.0,high,high-low,21.0,rod_fixing,rod_fixing,1.0,124.36499999603257,1554475521544.0,1554475521420.0,BLIND,126.0
1728,8.0,668239.0,0.7,39.0,high,high-low,21.0,rod_fixing,rod_fixing,1.0,130.85500000306638,1554475521677.0,1554475521546.0,BLIND,134.0
1729,8.0,668239.0,0.7,39.0,high,high-low,21.0,rod_fixing,rod_fixing,1.0,123.35000000166474,1554475521803.0,1554475521680.0,BLIND,496.0
1999,11.0,668239.0,1.2,39.0,high,high-low,21.0,rod_fixing,rod_fixing,1.0,584.6149999997579,1554475560161.0,1554475559576.0,BLIND,586.0
2000,11.0,668239.0,1.2,39.0,high,high-low,21.0,rod_fixing,rod_fixing,1.0,139.790000001085,1554475560302.0,1554475560162.0,BLIND,146.0
2001,11.0,668239.0,1.2,39.0,high,high-low,21.0,rod_fixing,rod_fixing,1.0,126.74999999580903,1554475560435.0,1554475560308.0,BLIND,129.0
2002,11.0,668239.0,1.2,39.0,high,high-low,21.0,rod_fixing,rod_fixing,1.0,123.8249999951222,1554475560562.0,1554475560437.0,BLIND,126.0
2003,11.0,668239.0,1.2,39.0,high,high-low,21.0,rod_fixing,rod_fixing,1.0,130.1099999982398,1554475560693.0,1554475560563.0,BLIND,134.0
2004,11.0,668239.0,1.2,39.0,high,high-low,21.0,rod_fixing,rod_fixing,1.0,117.47000000468687,1554475560815.0,1554475560697.0,BLIND,124.0
2005,11.0,668239.0,1.2,39.0,high,high-low,21.0,rod_fixing,rod_fixing,1.0,97.37499999755528,1554475560919.0,1554475560821.0,BLIND,244.0
2350,3.0,668239.0,0.7,39.0,low,high-low,12.0,rod_fixing,rod_fixing,1.0,412.4300000039512,1554475695825.0,1554475695413.0,BLIND,414.0
2351,3.0,668239.0,0.7,39.0,low,high-low,12.0,rod_fixing,rod_fixing,1.0,136.27000000269618,1554475695964.0,1554475695827.0,BLIND,142.0
2352,3.0,668239.0,0.7,39.0,low,high-low,12.0,rod_fixing,rod_fixing,1.0,132.28499999968335,1554475696101.0,1554475695969.0,BLIND,134.0
2353,3.0,668239.0,0.7,39.0,low,high-low,12.0,rod_fixing,rod_fixing,1.0,130.07999999535969,1554475696234.0,1554475696103.0,BLIND,134.0
2354,3.0,668239.0,0.7,39.0,low,high-low,12.0,rod_fixing,rod_fixing,1.0,129.33000000339234,1554475696367.0,1554475696237.0,BLIND,134.0
2355,3.0,668239.0,0.7,39.0,low,high-low,12.0,rod_fixing,rod_fixing,1.0,142.13500000187196,1554475696513.0,1554475696371.0,BLIND,144.0
2356,3.0,668239.0,0.7,39.0,low,high-low,12.0,rod_fixing,rod_fixing,1.0,136.8099999963306,1554475696652.0,1554475696515.0,BLIND,139.0
2357,3.0,668239.0,0.7,39.0,low,high-low,12.0,rod_fixing,rod_fixing,1.0,145.8100000018021,1554475696801.0,1554475696654.0,BLIND,163.0
2683,7.0,668239.0,2.5,39.0,low,high-low,12.0,rod_fixing,rod_fixing,1.0,1055.029999995837,1554475748804.0,1554475747749.0,BLIND,1060.0
2684,7.0,668239.0,2.5,39.0,low,high-low,12.0,rod_fixing,rod_fixing,1.0,132.6249999983702,1554475748942.0,1554475748809.0,BLIND,135.0
2685,7.0,668239.0,2.5,39.0,low,high-low,12.0,rod_fixing,rod_fixing,1.0,130.3649999973131,1554475749075.0,1554475748944.0,BLIND,133.0
2686,7.0,668239.0,2.5,39.0,low,high-low,12.0,rod_fixing,rod_fixing,1.0,143.46500000101514,1554475749221.0,1554475749077.0,BLIND,147.0
2687,7.0,668239.0,2.5,39.0,low,high-low,12.0,rod_fixing,rod_fixing,1.0,147.85999999730848,1554475749372.0,1554475749224.0,BLIND,155.0
2688,7.0,668239.0,2.5,39.0,low,high-low,12.0,rod_fixing,rod_fixing,1.0,135.31000000506174,1554475749515.0,1554475749379.0,BLIND,138.0
2689,7.0,668239.0,2.5,39.0,low,high-low,12.0,rod_fixing,rod_fixing,1.0,138.14499999722466,1554475749656.0,1554475749517.0,BLIND,290.0
3008,11.0,668239.0,0.3,39.0,low,high-low,12.0,rod_fixing,rod_fixing,1.0,390.2349999989383,1554475800453.0,1554475800063.0,BLIND,392.0
3009,11.0,668239.0,0.3,39.0,low,high-low,12.0,rod_fixing,rod_fixing,1.0,164.64999999885913,1554475800620.0,1554475800455.0,BLIND,167.0
3010,11.0,668239.0,0.3,39.0,low,high-low,12.0,rod_fixing,rod_fixing,1.0,121.26500000152737,1554475800743.0,1554475800622.0,BLIND,124.0
3011,11.0,668239.0,0.3,39.0,low,high-low,12.0,rod_fixing,rod_fixing,1.0,126.04500000446569,1554475800872.0,1554475800746.0,BLIND,128.0
3012,11.0,668239.0,0.3,39.0,low,high-low,12.0,rod_fixing,rod_fixing,1.0,136.71500000054948,1554475801011.0,1554475800874.0,BLIND,141.0
3013,11.0,668239.0,0.3,39.0,low,high-low,12.0,rod_fixing,rod_fixing,1.0,139.0200000023469,1554475801154.0,1554475801015.0,BLIND,141.0
3014,11.0,668239.0,0.3,39.0,low,high-low,12.0,rod_fixing,rod_fixing,1.0,142.25000000442378,1554475801298.0,1554475801156.0,BLIND,318.0
3446,4.0,668239.0,0.1,39.0,low,high-low,22.0,rod_fixing,rod_fixing,1.0,316.0900000003166,1554475945964.0,1554475945648.0,BLIND,318.0
3447,4.0,668239.0,0.1,39.0,low,high-low,22.0,rod_fixing,rod_fixing,1.0,124.94499999599066,1554475946091.0,1554475945966.0,BLIND,128.0
3448,4.0,668239.0,0.1,39.0,low,high-low,22.0,rod_fixing,rod_fixing,1.0,123.50500000326427,1554475946217.0,1554475946094.0,BLIND,126.0
3449,4.0,668239.0,0.1,39.0,low,high-low,22.0,rod_fixing,rod_fixing,1.0,126.104999995674,1554475946347.0,1554475946220.0,BLIND,133.0
3450,4.0,668239.0,0.1,39.0,low,high-low,22.0,rod_fixing,rod_fixing,1.0,118.705000000773,1554475946472.0,1554475946353.0,BLIND,121.0
3451,4.0,668239.0,0.1,39.0,low,high-low,22.0,rod_fixing,rod_fixing,1.0,117.14500000374392,1554475946592.0,1554475946474.0,BLIND,123.0
3452,4.0,668239.0,0.1,39.0,low,high-low,22.0,rod_fixing,rod_fixing,1.0,114.97999999846796,1554475946712.0,1554475946597.0,BLIND,252.0
3794,8.0,668239.0,0.7,39.0,low,high-low,22.0,rod_fixing,rod_fixing,1.0,950.3049999984213,1554475998946.0,1554475997996.0,BLIND,955.0
3795,8.0,668239.0,0.7,39.0,low,high-low,22.0,rod_fixing,rod_fixing,1.0,126.32500000472645,1554475999078.0,1554475998951.0,BLIND,135.0
3796,8.0,668239.0,0.7,39.0,low,high-low,22.0,rod_fixing,rod_fixing,1.0,108.18499999737831,1554475999195.0,1554475999086.0,BLIND,112.0
3797,8.0,668239.0,0.7,39.0,low,high-low,22.0,rod_fixing,rod_fixing,1.0,126.82500000670551,1554475999325.0,1554475999198.0,BLIND,132.0
3798,8.0,668239.0,0.7,39.0,low,high-low,22.0,rod_fixing,rod_fixing,1.0,123.07000000146219,1554475999454.0,1554475999330.0,BLIND,126.0
3799,8.0,668239.0,0.7,39.0,low,high-low,22.0,rod_fixing,rod_fixing,1.0,122.66000000084749,1554475999579.0,1554475999456.0,BLIND,125.0
3800,8.0,668239.0,0.7,39.0,low,high-low,22.0,rod_fixing,rod_fixing,1.0,113.44000000087543,1554475999694.0,1554475999581.0,BLIND,236.0
4056,11.0,668239.0,1.2,39.0,low,high-low,22.0,rod_fixing,rod_fixing,1.0,320.59499999741087,1554476037494.0,1554476037174.0,BLIND,323.0
4057,11.0,668239.0,1.2,39.0,low,high-low,22.0,rod_fixing,rod_fixing,1.0,129.0500000033062,1554476037627.0,1554476037497.0,BLIND,134.0
4058,11.0,668239.0,1.2,39.0,low,high-low,22.0,rod_fixing,rod_fixing,1.0,119.2349999982398,1554476037751.0,1554476037631.0,BLIND,123.0
4059,11.0,668239.0,1.2,39.0,low,high-low,22.0,rod_fixing,rod_fixing,1.0,133.95500000473112,1554476037888.0,1554476037754.0,BLIND,142.0
4060,11.0,668239.0,1.2,39.0,low,high-low,22.0,rod_fixing,rod_fixing,1.0,130.47499999799766,1554476038027.0,1554476037896.0,BLIND,133.0
4061,11.0,668239.0,1.2,39.0,low,high-low,22.0,rod_fixing,rod_fixing,1.0,118.12500000093132,1554476038148.0,1554476038029.0,BLIND,121.0
4062,11.0,668239.0,1.2,39.0,low,high-low,22.0,rod_fixing,rod_fixing,1.0,122.9349999994738,1554476038273.0,1554476038150.0,BLIND,253.0
112701,3.0,668240.0,0.3,39.0,low,low-high,11.0,rod_fixing,rod_fixing,1.0,743.0,1554475472990.0,1554475472246.0,BLIND,750.0
112702,3.0,668240.0,0.3,39.0,low,low-high,11.0,rod_fixing,rod_fixing,1.0,163.0,1554475473160.0,1554475472996.0,BLIND,166.0
112703,3.0,668240.0,0.3,39.0,low,low-high,11.0,rod_fixing,rod_fixing,1.0,199.0,1554475473360.0,1554475473162.0,BLIND,201.0
112704,3.0,668240.0,0.3,39.0,low,low-high,11.0,rod_fixing,rod_fixing,1.0,124.0,1554475473487.0,1554475473363.0,BLIND,126.0
112705,3.0,668240.0,0.3,39.0,low,low-high,11.0,rod_fixing,rod_fixing,1.0,176.0,1554475473666.0,1554475473489.0,BLIND,180.0
112706,3.0,668240.0,0.3,39.0,low,low-high,11.0,rod_fixing,rod_fixing,1.0,171.0,1554475473839.0,1554475473669.0,BLIND,174.0
112707,3.0,668240.0,0.3,39.0,low,low-high,11.0,rod_fixing,rod_fixing,1.0,163.0,1554475474007.0,1554475473843.0,BLIND,167.0
112708,3.0,668240.0,0.3,39.0,low,low-high,11.0,rod_fixing,rod_fixing,1.0,169.0,1554475474178.0,1554475474010.0,BLIND,178.0
113015,7.0,668240.0,0.1,39.0,low,low-high,11.0,rod_fixing,rod_fixing,1.0,454.0,1554475525125.0,1554475524672.0,BLIND,460.0
113016,7.0,668240.0,0.1,39.0,low,low-high,11.0,rod_fixing,rod_fixing,1.0,209.0,1554475525340.0,1554475525132.0,BLIND,213.0
113017,7.0,668240.0,0.1,39.0,low,low-high,11.0,rod_fixing,rod_fixing,1.0,163.0,1554475525510.0,1554475525345.0,BLIND,171.0
113018,7.0,668240.0,0.1,39.0,low,low-high,11.0,rod_fixing,rod_fixing,1.0,161.0,1554475525677.0,1554475525516.0,BLIND,166.0
113019,7.0,668240.0,0.1,39.0,low,low-high,11.0,rod_fixing,rod_fixing,1.0,153.0,1554475525835.0,1554475525682.0,BLIND,157.0
113020,7.0,668240.0,0.1,39.0,low,low-high,11.0,rod_fixing,rod_fixing,1.0,161.0,1554475526000.0,1554475525839.0,BLIND,168.0
113021,7.0,668240.0,0.1,39.0,low,low-high,11.0,rod_fixing,rod_fixing,1.0,166.0,1554475526173.0,1554475526007.0,BLIND,171.0
113022,7.0,668240.0,0.1,39.0,low,low-high,11.0,rod_fixing,rod_fixing,1.0,165.0,1554475526344.0,1554475526178.0,BLIND,191.0
113310,11.0,668240.0,1.8,39.0,low,low-high,11.0,rod_fixing,rod_fixing,1.0,605.0,1554475577833.0,1554475577227.0,BLIND,609.0
113311,11.0,668240.0,1.8,39.0,low,low-high,11.0,rod_fixing,rod_fixing,1.0,175.0,1554475578011.0,1554475577836.0,BLIND,179.0
113312,11.0,668240.0,1.8,39.0,low,low-high,11.0,rod_fixing,rod_fixing,1.0,156.0,1554475578171.0,1554475578015.0,BLIND,159.0
113313,11.0,668240.0,1.8,39.0,low,low-high,11.0,rod_fixing,rod_fixing,1.0,196.0,1554475578369.0,1554475578174.0,BLIND,199.0
113314,11.0,668240.0,1.8,39.0,low,low-high,11.0,rod_fixing,rod_fixing,1.0,161.0,1554475578534.0,1554475578373.0,BLIND,165.0
113315,11.0,668240.0,1.8,39.0,low,low-high,11.0,rod_fixing,rod_fixing,1.0,189.0,1554475578727.0,1554475578538.0,BLIND,192.0
113316,11.0,668240.0,1.8,39.0,low,low-high,11.0,rod_fixing,rod_fixing,1.0,167.0,1554475578898.0,1554475578730.0,BLIND,172.0
113317,11.0,668240.0,1.8,39.0,low,low-high,11.0,rod_fixing,rod_fixing,1.0,174.0,1554475579076.0,1554475578902.0,BLIND,192.0
113698,4.0,668240.0,0.7,39.0,low,low-high,21.0,rod_fixing,rod_fixing,1.0,664.0,1554475752441.0,1554475751777.0,BLIND,669.0
113699,4.0,668240.0,0.7,39.0,low,low-high,21.0,rod_fixing,rod_fixing,1.0,212.0,1554475752659.0,1554475752446.0,BLIND,217.0
113700,4.0,668240.0,0.7,39.0,low,low-high,21.0,rod_fixing,rod_fixing,1.0,126.0,1554475752790.0,1554475752663.0,BLIND,131.0
113701,4.0,668240.0,0.7,39.0,low,low-high,21.0,rod_fixing,rod_fixing,1.0,191.0,1554475752986.0,1554475752794.0,BLIND,200.0
113702,4.0,668240.0,0.7,39.0,low,low-high,21.0,rod_fixing,rod_fixing,1.0,144.0,1554475753140.0,1554475752994.0,BLIND,152.0
113703,4.0,668240.0,0.7,39.0,low,low-high,21.0,rod_fixing,rod_fixing,1.0,163.0,1554475753310.0,1554475753146.0,BLIND,170.0
113704,4.0,668240.0,0.7,39.0,low,low-high,21.0,rod_fixing,rod_fixing,1.0,166.0,1554475753482.0,1554475753316.0,BLIND,177.0
113705,4.0,668240.0,0.7,39.0,low,low-high,21.0,rod_fixing,rod_fixing,1.0,168.0,1554475753662.0,1554475753493.0,BLIND,192.0
113981,8.0,668240.0,1.2,39.0,low,low-high,21.0,rod_fixing,rod_fixing,1.0,629.0,1554475804934.0,1554475804304.0,BLIND,634.0
113982,8.0,668240.0,1.2,39.0,low,low-high,21.0,rod_fixing,rod_fixing,1.0,159.0,1554475805098.0,1554475804938.0,BLIND,165.0
113983,8.0,668240.0,1.2,39.0,low,low-high,21.0,rod_fixing,rod_fixing,1.0,182.0,1554475805284.0,1554475805103.0,BLIND,191.0
113984,8.0,668240.0,1.2,39.0,low,low-high,21.0,rod_fixing,rod_fixing,1.0,148.0,1554475805443.0,1554475805294.0,BLIND,160.0
113985,8.0,668240.0,1.2,39.0,low,low-high,21.0,rod_fixing,rod_fixing,1.0,144.0,1554475805600.0,1554475805454.0,BLIND,150.0
113986,8.0,668240.0,1.2,39.0,low,low-high,21.0,rod_fixing,rod_fixing,1.0,166.0,1554475805773.0,1554475805604.0,BLIND,173.0
113987,8.0,668240.0,1.2,39.0,low,low-high,21.0,rod_fixing,rod_fixing,1.0,156.0,1554475805935.0,1554475805777.0,BLIND,163.0
113988,8.0,668240.0,1.2,39.0,low,low-high,21.0,rod_fixing,rod_fixing,1.0,182.0,1554475806122.0,1554475805940.0,BLIND,213.0
114179,11.0,668240.0,0.3,39.0,low,low-high,21.0,rod_fixing,rod_fixing,1.0,566.0,1554475844021.0,1554475843453.0,BLIND,578.0
114180,11.0,668240.0,0.3,39.0,low,low-high,21.0,rod_fixing,rod_fixing,1.0,173.0,1554475844207.0,1554475844031.0,BLIND,182.0
114181,11.0,668240.0,0.3,39.0,low,low-high,21.0,rod_fixing,rod_fixing,1.0,163.0,1554475844377.0,1554475844213.0,BLIND,171.0
114182,11.0,668240.0,0.3,39.0,low,low-high,21.0,rod_fixing,rod_fixing,1.0,162.0,1554475844547.0,1554475844384.0,BLIND,167.0
114183,11.0,668240.0,0.3,39.0,low,low-high,21.0,rod_fixing,rod_fixing,1.0,162.0,1554475844714.0,1554475844551.0,BLIND,171.0
114184,11.0,668240.0,0.3,39.0,low,low-high,21.0,rod_fixing,rod_fixing,1.0,165.0,1554475844888.0,1554475844722.0,BLIND,171.0
114185,11.0,668240.0,0.3,39.0,low,low-high,21.0,rod_fixing,rod_fixing,1.0,167.0,1554475845061.0,1554475844893.0,BLIND,174.0
114186,11.0,668240.0,0.3,39.0,low,low-high,21.0,rod_fixing,rod_fixing,1.0,178.0,1554475845245.0,1554475845067.0,BLIND,208.0
114494,3.0,668240.0,0.3,39.0,high,high-low,12.0,rod_fixing,rod_fixing,1.0,625.0,1554476048811.0,1554476048185.0,BLIND,643.0
114495,3.0,668240.0,0.3,39.0,high,high-low,12.0,rod_fixing,rod_fixing,1.0,175.0,1554476049004.0,1554476048828.0,BLIND,182.0
114496,3.0,668240.0,0.3,39.0,high,high-low,12.0,rod_fixing,rod_fixing,1.0,151.0,1554476049160.0,1554476049010.0,BLIND,163.0
114497,3.0,668240.0,0.3,39.0,high,high-low,12.0,rod_fixing,rod_fixing,1.0,139.0,1554476049314.0,1554476049173.0,BLIND,154.0
114498,3.0,668240.0,0.3,39.0,high,high-low,12.0,rod_fixing,rod_fixing,1.0,163.0,1554476049490.0,1554476049327.0,BLIND,177.0
114499,3.0,668240.0,0.3,39.0,high,high-low,12.0,rod_fixing,rod_fixing,1.0,137.0,1554476049642.0,1554476049504.0,BLIND,152.0
114500,3.0,668240.0,0.3,39.0,high,high-low,12.0,rod_fixing,rod_fixing,1.0,149.0,1554476049806.0,1554476049656.0,BLIND,157.0
114501,3.0,668240.0,0.3,39.0,high,high-low,12.0,rod_fixing,rod_fixing,1.0,160.0,1554476049974.0,1554476049813.0,BLIND,193.0
114814,7.0,668240.0,0.1,39.0,high,high-low,12.0,rod_fixing,rod_fixing,1.0,582.0,1554476101234.0,1554476100652.0,BLIND,596.0
114815,7.0,668240.0,0.1,39.0,high,high-low,12.0,rod_fixing,rod_fixing,1.0,114.0,1554476101362.0,1554476101248.0,BLIND,129.0
114816,7.0,668240.0,0.1,39.0,high,high-low,12.0,rod_fixing,rod_fixing,1.0,220.0,1554476101597.0,1554476101377.0,BLIND,235.0
114817,7.0,668240.0,0.1,39.0,high,high-low,12.0,rod_fixing,rod_fixing,1.0,133.0,1554476101745.0,1554476101612.0,BLIND,140.0
114818,7.0,668240.0,0.1,39.0,high,high-low,12.0,rod_fixing,rod_fixing,1.0,160.0,1554476101913.0,1554476101752.0,BLIND,170.0
114819,7.0,668240.0,0.1,39.0,high,high-low,12.0,rod_fixing,rod_fixing,1.0,149.0,1554476102072.0,1554476101922.0,BLIND,160.0
114820,7.0,668240.0,0.1,39.0,high,high-low,12.0,rod_fixing,rod_fixing,1.0,168.0,1554476102251.0,1554476102082.0,BLIND,176.0
114821,7.0,668240.0,0.1,39.0,high,high-low,12.0,rod_fixing,rod_fixing,1.0,166.0,1554476102424.0,1554476102258.0,BLIND,220.0
115124,11.0,668240.0,1.8,39.0,high,high-low,12.0,rod_fixing,rod_fixing,1.0,774.0,1554476153713.0,1554476152938.0,BLIND,780.0
115125,11.0,668240.0,1.8,39.0,high,high-low,12.0,rod_fixing,rod_fixing,1.0,165.0,1554476153883.0,1554476153718.0,BLIND,172.0
115126,11.0,668240.0,1.8,39.0,high,high-low,12.0,rod_fixing,rod_fixing,1.0,185.0,1554476154074.0,1554476153890.0,BLIND,200.0
115127,11.0,668240.0,1.8,39.0,high,high-low,12.0,rod_fixing,rod_fixing,1.0,161.0,1554476154253.0,1554476154090.0,BLIND,172.0
115128,11.0,668240.0,1.8,39.0,high,high-low,12.0,rod_fixing,rod_fixing,1.0,160.0,1554476154423.0,1554476154262.0,BLIND,170.0
115129,11.0,668240.0,1.8,39.0,high,high-low,12.0,rod_fixing,rod_fixing,1.0,186.0,1554476154619.0,1554476154432.0,BLIND,196.0
115130,11.0,668240.0,1.8,39.0,high,high-low,12.0,rod_fixing,rod_fixing,1.0,151.0,1554476154779.0,1554476154628.0,BLIND,159.0
115131,11.0,668240.0,1.8,39.0,high,high-low,12.0,rod_fixing,rod_fixing,1.0,181.0,1554476154969.0,1554476154787.0,BLIND,239.0
115837,8.0,668240.0,1.2,39.0,high,high-low,22.0,rod_fixing,rod_fixing,1.0,624.0,1554476365054.0,1554476364430.0,BLIND,641.0
115838,8.0,668240.0,1.2,39.0,high,high-low,22.0,rod_fixing,rod_fixing,1.0,158.0,1554476365231.0,1554476365071.0,BLIND,181.0
115839,8.0,668240.0,1.2,39.0,high,high-low,22.0,rod_fixing,rod_fixing,1.0,133.0,1554476365387.0,1554476365252.0,BLIND,158.0
115840,8.0,668240.0,1.2,39.0,high,high-low,22.0,rod_fixing,rod_fixing,1.0,126.0,1554476365538.0,1554476365410.0,BLIND,148.0
115841,8.0,668240.0,1.2,39.0,high,high-low,22.0,rod_fixing,rod_fixing,1.0,175.0,1554476365734.0,1554476365558.0,BLIND,197.0
115842,8.0,668240.0,1.2,39.0,high,high-low,22.0,rod_fixing,rod_fixing,1.0,151.0,1554476365906.0,1554476365755.0,BLIND,161.0
115843,8.0,668240.0,1.2,39.0,high,high-low,22.0,rod_fixing,rod_fixing,1.0,164.0,1554476366080.0,1554476365916.0,BLIND,170.0
115844,8.0,668240.0,1.2,39.0,high,high-low,22.0,rod_fixing,rod_fixing,1.0,163.0,1554476366251.0,1554476366086.0,BLIND,202.0
116074,11.0,668240.0,0.3,39.0,high,high-low,22.0,rod_fixing,rod_fixing,1.0,721.0,1554476404487.0,1554476403765.0,BLIND,741.0
116075,11.0,668240.0,0.3,39.0,high,high-low,22.0,rod_fixing,rod_fixing,1.0,172.0,1554476404678.0,1554476404506.0,BLIND,188.0
116076,11.0,668240.0,0.3,39.0,high,high-low,22.0,rod_fixing,rod_fixing,1.0,148.0,1554476404844.0,1554476404694.0,BLIND,170.0
116077,11.0,668240.0,0.3,39.0,high,high-low,22.0,rod_fixing,rod_fixing,1.0,150.0,1554476405015.0,1554476404864.0,BLIND,159.0
116078,11.0,668240.0,0.3,39.0,high,high-low,22.0,rod_fixing,rod_fixing,1.0,152.0,1554476405176.0,1554476405023.0,BLIND,162.0
116079,11.0,668240.0,0.3,39.0,high,high-low,22.0,rod_fixing,rod_fixing,1.0,151.0,1554476405336.0,1554476405185.0,BLIND,160.0
116080,11.0,668240.0,0.3,39.0,high,high-low,22.0,rod_fixing,rod_fixing,1.0,163.0,1554476405508.0,1554476405345.0,BLIND,185.0
116081,11.0,668240.0,0.3,39.0,high,high-low,22.0,rod_fixing,rod_fixing,1.0,147.0,1554476405678.0,1554476405530.0,BLIND,198.0
11738,3.0,668244.0,0.7,39.0,high,high-low,11.0,rod_fixing,rod_fixing,1.0,1206.0150001198053,1554475690049.0,1554475688843.0,BLIND,1208.0
11739,3.0,668244.0,0.7,39.0,high,high-low,11.0,rod_fixing,rod_fixing,1.0,101.6450000461191,1554475690153.0,1554475690051.0,BLIND,104.0
11740,3.0,668244.0,0.7,39.0,high,high-low,11.0,rod_fixing,rod_fixing,1.0,117.76499985717236,1554475690273.0,1554475690155.0,BLIND,120.0
11741,3.0,668244.0,0.7,39.0,high,high-low,11.0,rod_fixing,rod_fixing,1.0,118.17500018514693,1554475690393.0,1554475690275.0,BLIND,120.0
11742,3.0,668244.0,0.7,39.0,high,high-low,11.0,rod_fixing,rod_fixing,1.0,206.26999996602532,1554475690601.0,1554475690395.0,BLIND,208.0
11743,3.0,668244.0,0.7,39.0,high,high-low,11.0,rod_fixing,rod_fixing,1.0,101.80000006221235,1554475690705.0,1554475690603.0,BLIND,103.0
11744,3.0,668244.0,0.7,39.0,high,high-low,11.0,rod_fixing,rod_fixing,1.0,110.45499984174968,1554475690817.0,1554475690706.0,BLIND,112.0
11745,3.0,668244.0,0.7,39.0,high,high-low,11.0,rod_fixing,rod_fixing,1.0,102.82999998889863,1554475690921.0,1554475690818.0,BLIND,109.0
12085,7.0,668244.0,2.5,39.0,high,high-low,11.0,rod_fixing,rod_fixing,1.0,950.8150001056492,1554475742153.0,1554475741202.0,BLIND,952.0
12086,7.0,668244.0,2.5,39.0,high,high-low,11.0,rod_fixing,rod_fixing,1.0,365.98000000230974,1554475742521.0,1554475742154.0,BLIND,369.0
12087,7.0,668244.0,2.5,39.0,high,high-low,11.0,rod_fixing,rod_fixing,1.0,101.4649998396635,1554475742625.0,1554475742523.0,BLIND,103.0
12088,7.0,668244.0,2.5,39.0,high,high-low,11.0,rod_fixing,rod_fixing,1.0,110.7149999588728,1554475742737.0,1554475742626.0,BLIND,112.0
12089,7.0,668244.0,2.5,39.0,high,high-low,11.0,rod_fixing,rod_fixing,1.0,102.56500006653368,1554475742840.0,1554475742738.0,BLIND,104.0
12090,7.0,668244.0,2.5,39.0,high,high-low,11.0,rod_fixing,rod_fixing,1.0,94.7300000116229,1554475742936.0,1554475742842.0,BLIND,96.0
12091,7.0,668244.0,2.5,39.0,high,high-low,11.0,rod_fixing,rod_fixing,1.0,110.15999992378056,1554475743048.0,1554475742938.0,BLIND,220.0
12394,11.0,668244.0,0.7,39.0,high,high-low,11.0,rod_fixing,rod_fixing,1.0,1243.9599998760968,1554475794783.0,1554475793539.0,BLIND,1246.0
12395,11.0,668244.0,0.7,39.0,high,high-low,11.0,rod_fixing,rod_fixing,1.0,94.34500010684131,1554475794880.0,1554475794785.0,BLIND,97.0
12396,11.0,668244.0,0.7,39.0,high,high-low,11.0,rod_fixing,rod_fixing,1.0,116.95499997586012,1554475795000.0,1554475794882.0,BLIND,120.0
12397,11.0,668244.0,0.7,39.0,high,high-low,11.0,rod_fixing,rod_fixing,1.0,101.65999992750584,1554475795104.0,1554475795002.0,BLIND,104.0
12398,11.0,668244.0,0.7,39.0,high,high-low,11.0,rod_fixing,rod_fixing,1.0,109.31999981403351,1554475795216.0,1554475795106.0,BLIND,112.0
12399,11.0,668244.0,0.7,39.0,high,high-low,11.0,rod_fixing,rod_fixing,1.0,109.70999998971821,1554475795328.0,1554475795218.0,BLIND,112.0
12400,11.0,668244.0,0.7,39.0,high,high-low,11.0,rod_fixing,rod_fixing,1.0,109.44999987259509,1554475795439.0,1554475795330.0,BLIND,228.0
12746,4.0,668244.0,0.7,39.0,high,high-low,21.0,rod_fixing,rod_fixing,1.0,2195.6350000109524,1554475992799.0,1554475990603.0,BLIND,2198.0
12747,4.0,668244.0,0.7,39.0,high,high-low,21.0,rod_fixing,rod_fixing,1.0,245.54999987594783,1554475993047.0,1554475992801.0,BLIND,248.0
12748,4.0,668244.0,0.7,39.0,high,high-low,21.0,rod_fixing,rod_fixing,1.0,109.41000003367662,1554475993159.0,1554475993049.0,BLIND,113.0
12749,4.0,668244.0,0.7,39.0,high,high-low,21.0,rod_fixing,rod_fixing,1.0,116.89499998465179,1554475993279.0,1554475993162.0,BLIND,119.0
12750,4.0,668244.0,0.7,39.0,high,high-low,21.0,rod_fixing,rod_fixing,1.0,125.46499981544912,1554475993407.0,1554475993281.0,BLIND,128.0
12751,4.0,668244.0,0.7,39.0,high,high-low,21.0,rod_fixing,rod_fixing,1.0,245.51500007510185,1554475993655.0,1554475993409.0,BLIND,248.0
12752,4.0,668244.0,0.7,39.0,high,high-low,21.0,rod_fixing,rod_fixing,1.0,165.01499991863966,1554475993823.0,1554475993657.0,BLIND,168.0
12753,4.0,668244.0,0.7,39.0,high,high-low,21.0,rod_fixing,rod_fixing,1.0,204.95500019751492,1554475994031.0,1554475993825.0,BLIND,219.0
13029,8.0,668244.0,0.1,39.0,high,high-low,21.0,rod_fixing,rod_fixing,1.0,834.1300000902264,1554476043799.0,1554476042964.0,BLIND,837.0
13030,8.0,668244.0,0.1,39.0,high,high-low,21.0,rod_fixing,rod_fixing,1.0,221.5799998957664,1554476044023.0,1554476043801.0,BLIND,224.0
13031,8.0,668244.0,0.1,39.0,high,high-low,21.0,rod_fixing,rod_fixing,1.0,85.54999995976685,1554476044111.0,1554476044025.0,BLIND,88.0
13032,8.0,668244.0,0.1,39.0,high,high-low,21.0,rod_fixing,rod_fixing,1.0,110.09499989449978,1554476044223.0,1554476044113.0,BLIND,112.0
13033,8.0,668244.0,0.1,39.0,high,high-low,21.0,rod_fixing,rod_fixing,1.0,101.77999990992248,1554476044327.0,1554476044225.0,BLIND,104.0
13034,8.0,668244.0,0.1,39.0,high,high-low,21.0,rod_fixing,rod_fixing,1.0,102.03999979421495,1554476044431.0,1554476044329.0,BLIND,104.0
13035,8.0,668244.0,0.1,39.0,high,high-low,21.0,rod_fixing,rod_fixing,1.0,69.92499995976685,1554476044503.0,1554476044433.0,BLIND,167.0
13266,11.0,668244.0,0.7,39.0,high,high-low,21.0,rod_fixing,rod_fixing,1.0,672.5549998227508,1554476082943.0,1554476082270.0,BLIND,675.0
13267,11.0,668244.0,0.7,39.0,high,high-low,21.0,rod_fixing,rod_fixing,1.0,485.0950001273304,1554476083431.0,1554476082945.0,BLIND,488.0
13268,11.0,668244.0,0.7,39.0,high,high-low,21.0,rod_fixing,rod_fixing,1.0,148.73500005342066,1554476083582.0,1554476083433.0,BLIND,151.0
13269,11.0,668244.0,0.7,39.0,high,high-low,21.0,rod_fixing,rod_fixing,1.0,102.174999890849,1554476083686.0,1554476083584.0,BLIND,104.0
13270,11.0,668244.0,0.7,39.0,high,high-low,21.0,rod_fixing,rod_fixing,1.0,141.88500004820523,1554476083830.0,1554476083688.0,BLIND,144.0
13271,11.0,668244.0,0.7,39.0,high,high-low,21.0,rod_fixing,rod_fixing,1.0,110.1699999999255,1554476083943.0,1554476083832.0,BLIND,113.0
13272,11.0,668244.0,0.7,39.0,high,high-low,21.0,rod_fixing,rod_fixing,1.0,140.70000010542572,1554476084086.0,1554476083945.0,BLIND,144.0
13273,11.0,668244.0,0.7,39.0,high,high-low,21.0,rod_fixing,rod_fixing,1.0,149.2149999830872,1554476084238.0,1554476084089.0,BLIND,160.0
13554,3.0,668244.0,0.7,39.0,low,high-low,12.0,rod_fixing,rod_fixing,1.0,1121.3299999944868,1554476590349.0,1554476589227.0,BLIND,1125.0
13555,3.0,668244.0,0.7,39.0,low,high-low,12.0,rod_fixing,rod_fixing,1.0,164.28999998606741,1554476590517.0,1554476590352.0,BLIND,168.0
13556,3.0,668244.0,0.7,39.0,low,high-low,12.0,rod_fixing,rod_fixing,1.0,141.03500009514391,1554476590661.0,1554476590520.0,BLIND,144.0
13557,3.0,668244.0,0.7,39.0,low,high-low,12.0,rod_fixing,rod_fixing,1.0,156.71999985352159,1554476590821.0,1554476590664.0,BLIND,160.0
13558,3.0,668244.0,0.7,39.0,low,high-low,12.0,rod_fixing,rod_fixing,1.0,117.70499986596407,1554476590942.0,1554476590824.0,BLIND,120.0
13559,3.0,668244.0,0.7,39.0,low,high-low,12.0,rod_fixing,rod_fixing,1.0,140.2900000102818,1554476591085.0,1554476590944.0,BLIND,143.0
13560,3.0,668244.0,0.7,39.0,low,high-low,12.0,rod_fixing,rod_fixing,1.0,141.30500005558133,1554476591229.0,1554476591087.0,BLIND,145.0
13561,3.0,668244.0,0.7,39.0,low,high-low,12.0,rod_fixing,rod_fixing,1.0,252.6699998416006,1554476591485.0,1554476591232.0,BLIND,265.0
13833,7.0,668244.0,2.5,39.0,low,high-low,12.0,rod_fixing,rod_fixing,1.0,1123.704999918118,1554476642693.0,1554476641569.0,BLIND,1126.0
13834,7.0,668244.0,2.5,39.0,low,high-low,12.0,rod_fixing,rod_fixing,1.0,172.78000013902786,1554476642868.0,1554476642695.0,BLIND,177.0
13835,7.0,668244.0,2.5,39.0,low,high-low,12.0,rod_fixing,rod_fixing,1.0,284.53999990597373,1554476643156.0,1554476642872.0,BLIND,288.0
13836,7.0,668244.0,2.5,39.0,low,high-low,12.0,rod_fixing,rod_fixing,1.0,155.70000000298026,1554476643316.0,1554476643160.0,BLIND,159.0
13837,7.0,668244.0,2.5,39.0,low,high-low,12.0,rod_fixing,rod_fixing,1.0,269.73499986343086,1554476643589.0,1554476643319.0,BLIND,272.0
13838,7.0,668244.0,2.5,39.0,low,high-low,12.0,rod_fixing,rod_fixing,1.0,165.4699998907745,1554476643757.0,1554476643591.0,BLIND,169.0
13839,7.0,668244.0,2.5,39.0,low,high-low,12.0,rod_fixing,rod_fixing,1.0,196.80500007234517,1554476643957.0,1554476643760.0,BLIND,199.0
13840,7.0,668244.0,2.5,39.0,low,high-low,12.0,rod_fixing,rod_fixing,1.0,285.56999983266,1554476644245.0,1554476643959.0,BLIND,297.0
14135,11.0,668244.0,0.7,39.0,low,high-low,12.0,rod_fixing,rod_fixing,1.0,1307.3350000195205,1554476695213.0,1554476693905.0,BLIND,1311.0
14136,11.0,668244.0,0.7,39.0,low,high-low,12.0,rod_fixing,rod_fixing,1.0,156.71999985352159,1554476695373.0,1554476695216.0,BLIND,160.0
14137,11.0,668244.0,0.7,39.0,low,high-low,12.0,rod_fixing,rod_fixing,1.0,124.8749999795109,1554476695501.0,1554476695376.0,BLIND,128.0
14138,11.0,668244.0,0.7,39.0,low,high-low,12.0,rod_fixing,rod_fixing,1.0,148.78499996848404,1554476695653.0,1554476695504.0,BLIND,153.0
14139,11.0,668244.0,0.7,39.0,low,high-low,12.0,rod_fixing,rod_fixing,1.0,124.04999998398122,1554476695781.0,1554476695657.0,BLIND,127.0
14140,11.0,668244.0,0.7,39.0,low,high-low,12.0,rod_fixing,rod_fixing,1.0,140.59500000439584,1554476695925.0,1554476695784.0,BLIND,144.0
14141,11.0,668244.0,0.7,39.0,low,high-low,12.0,rod_fixing,rod_fixing,1.0,124.55000006593764,1554476696053.0,1554476695928.0,BLIND,128.0
14142,11.0,668244.0,0.7,39.0,low,high-low,12.0,rod_fixing,rod_fixing,1.0,212.1549998410046,1554476696269.0,1554476696056.0,BLIND,225.0
14502,4.0,668244.0,0.7,39.0,low,high-low,22.0,rod_fixing,rod_fixing,1.0,1233.574999962002,1554476969629.0,1554476968395.0,BLIND,1237.0
14503,4.0,668244.0,0.7,39.0,low,high-low,22.0,rod_fixing,rod_fixing,1.0,156.48499992676082,1554476969789.0,1554476969632.0,BLIND,159.0
14504,4.0,668244.0,0.7,39.0,low,high-low,22.0,rod_fixing,rod_fixing,1.0,116.96500005200504,1554476969909.0,1554476969791.0,BLIND,120.0
14505,4.0,668244.0,0.7,39.0,low,high-low,22.0,rod_fixing,rod_fixing,1.0,189.78999997489154,1554476970101.0,1554476969911.0,BLIND,193.0
14506,4.0,668244.0,0.7,39.0,low,high-low,22.0,rod_fixing,rod_fixing,1.0,76.12000009976327,1554476970181.0,1554476970104.0,BLIND,79.0
14507,4.0,668244.0,0.7,39.0,low,high-low,22.0,rod_fixing,rod_fixing,1.0,117.2850001603365,1554476970301.0,1554476970183.0,BLIND,120.0
14508,4.0,668244.0,0.7,39.0,low,high-low,22.0,rod_fixing,rod_fixing,1.0,85.13500005938113,1554476970388.0,1554476970303.0,BLIND,89.0
14509,4.0,668244.0,0.7,39.0,low,high-low,22.0,rod_fixing,rod_fixing,1.0,372.74000002071267,1554476970765.0,1554476970392.0,BLIND,387.0
14852,8.0,668244.0,0.1,39.0,low,high-low,22.0,rod_fixing,rod_fixing,1.0,627.5399997830391,1554477021252.0,1554477020624.0,BLIND,631.0
14853,8.0,668244.0,0.1,39.0,low,high-low,22.0,rod_fixing,rod_fixing,1.0,133.0150000285357,1554477021388.0,1554477021255.0,BLIND,137.0
14854,8.0,668244.0,0.1,39.0,low,high-low,22.0,rod_fixing,rod_fixing,1.0,219.97999981977048,1554477021612.0,1554477021392.0,BLIND,873.0
15074,11.0,668244.0,0.7,39.0,low,high-low,22.0,rod_fixing,rod_fixing,1.0,725.2150001004338,1554477060548.0,1554477059823.0,BLIND,728.0
15075,11.0,668244.0,0.7,39.0,low,high-low,22.0,rod_fixing,rod_fixing,1.0,229.30500004440543,1554477060781.0,1554477060551.0,BLIND,233.0
15076,11.0,668244.0,0.7,39.0,low,high-low,22.0,rod_fixing,rod_fixing,1.0,115.48999999649824,1554477060900.0,1554477060784.0,BLIND,121.0
15077,11.0,668244.0,0.7,39.0,low,high-low,22.0,rod_fixing,rod_fixing,1.0,106.55000014230608,1554477061012.0,1554477060905.0,BLIND,111.0
15078,11.0,668244.0,0.7,39.0,low,high-low,22.0,rod_fixing,rod_fixing,1.0,116.22500000521539,1554477061132.0,1554477061016.0,BLIND,119.0
15079,11.0,668244.0,0.7,39.0,low,high-low,22.0,rod_fixing,rod_fixing,1.0,109.11999992094934,1554477061244.0,1554477061135.0,BLIND,112.0
15080,11.0,668244.0,0.7,39.0,low,high-low,22.0,rod_fixing,rod_fixing,1.0,116.96500005200504,1554477061364.0,1554477061247.0,BLIND,121.0
15081,11.0,668244.0,0.7,39.0,low,high-low,22.0,rod_fixing,rod_fixing,1.0,163.79999998025596,1554477061532.0,1554477061368.0,BLIND,179.0
120120,3.0,668245.0,0.1,39.0,low,low-high,11.0,rod_fixing,rod_fixing,1.0,1103.54499999994,1554475550835.0,1554475549730.0,BLIND,1110.0
120121,3.0,668245.0,0.1,39.0,low,low-high,11.0,rod_fixing,rod_fixing,1.0,235.14499999998955,1554475551077.0,1554475550840.0,BLIND,242.0
120122,3.0,668245.0,0.1,39.0,low,low-high,11.0,rod_fixing,rod_fixing,1.0,170.25000000000728,1554475551253.0,1554475551082.0,BLIND,175.0
120123,3.0,668245.0,0.1,39.0,low,low-high,11.0,rod_fixing,rod_fixing,1.0,191.68500000000492,1554475551450.0,1554475551257.0,BLIND,197.0
120124,3.0,668245.0,0.1,39.0,low,low-high,11.0,rod_fixing,rod_fixing,1.0,192.04500000000556,1554475551647.0,1554475551454.0,BLIND,197.0
120125,3.0,668245.0,0.1,39.0,low,low-high,11.0,rod_fixing,rod_fixing,1.0,217.36499999996886,1554475551869.0,1554475551651.0,BLIND,222.0
120126,3.0,668245.0,0.1,39.0,low,low-high,11.0,rod_fixing,rod_fixing,1.0,209.9850000000733,1554475552084.0,1554475551873.0,BLIND,215.0
120127,3.0,668245.0,0.1,39.0,low,low-high,11.0,rod_fixing,rod_fixing,1.0,205.0049999999173,1554475552294.0,1554475552088.0,BLIND,220.0
120417,7.0,668245.0,0.7,39.0,low,low-high,11.0,rod_fixing,rod_fixing,1.0,945.1950000000217,1554475603010.0,1554475602064.0,BLIND,950.0
120418,7.0,668245.0,0.7,39.0,low,low-high,11.0,rod_fixing,rod_fixing,1.0,202.76999999998955,1554475603217.0,1554475603014.0,BLIND,208.0
120419,7.0,668245.0,0.7,39.0,low,low-high,11.0,rod_fixing,rod_fixing,1.0,179.0399999999936,1554475603402.0,1554475603222.0,BLIND,184.0
120420,7.0,668245.0,0.7,39.0,low,low-high,11.0,rod_fixing,rod_fixing,1.0,183.05500000008038,1554475603590.0,1554475603406.0,BLIND,188.0
120421,7.0,668245.0,0.7,39.0,low,low-high,11.0,rod_fixing,rod_fixing,1.0,195.8450000000739,1554475603791.0,1554475603594.0,BLIND,200.0
120422,7.0,668245.0,0.7,39.0,low,low-high,11.0,rod_fixing,rod_fixing,1.0,188.94000000000236,1554475603984.0,1554475603794.0,BLIND,195.0
120423,7.0,668245.0,0.7,39.0,low,low-high,11.0,rod_fixing,rod_fixing,1.0,186.32500000001164,1554475604176.0,1554475603989.0,BLIND,193.0
120424,7.0,668245.0,0.7,39.0,low,low-high,11.0,rod_fixing,rod_fixing,1.0,179.30500000000757,1554475604362.0,1554475604182.0,BLIND,194.0
120727,11.0,668245.0,0.1,39.0,low,low-high,11.0,rod_fixing,rod_fixing,1.0,999.3849999999513,1554475655427.0,1554475654427.0,BLIND,1005.0
120728,11.0,668245.0,0.1,39.0,low,low-high,11.0,rod_fixing,rod_fixing,1.0,174.31499999997322,1554475655607.0,1554475655432.0,BLIND,180.0
120729,11.0,668245.0,0.1,39.0,low,low-high,11.0,rod_fixing,rod_fixing,1.0,175.37000000002445,1554475655788.0,1554475655612.0,BLIND,181.0
120730,11.0,668245.0,0.1,39.0,low,low-high,11.0,rod_fixing,rod_fixing,1.0,180.990000000078,1554475655974.0,1554475655793.0,BLIND,187.0
120731,11.0,668245.0,0.1,39.0,low,low-high,11.0,rod_fixing,rod_fixing,1.0,174.09499999994296,1554475656155.0,1554475655980.0,BLIND,180.0
120732,11.0,668245.0,0.1,39.0,low,low-high,11.0,rod_fixing,rod_fixing,1.0,182.41500000000812,1554475656343.0,1554475656160.0,BLIND,188.0
120733,11.0,668245.0,0.1,39.0,low,low-high,11.0,rod_fixing,rod_fixing,1.0,195.7399999999907,1554475656544.0,1554475656348.0,BLIND,201.0
120734,11.0,668245.0,0.1,39.0,low,low-high,11.0,rod_fixing,rod_fixing,1.0,178.7600000000093,1554475656728.0,1554475656549.0,BLIND,196.0
121118,4.0,668245.0,0.3,39.0,low,low-high,21.0,rod_fixing,rod_fixing,1.0,897.0550000000221,1554475733484.0,1554475732586.0,BLIND,902.0
121119,4.0,668245.0,0.3,39.0,low,low-high,21.0,rod_fixing,rod_fixing,1.0,205.80999999993944,1554475733694.0,1554475733488.0,BLIND,209.0
121120,4.0,668245.0,0.3,39.0,low,low-high,21.0,rod_fixing,rod_fixing,1.0,173.28499999994528,1554475733871.0,1554475733697.0,BLIND,177.0
121121,4.0,668245.0,0.3,39.0,low,low-high,21.0,rod_fixing,rod_fixing,1.0,178.42000000007098,1554475734053.0,1554475733874.0,BLIND,183.0
121122,4.0,668245.0,0.3,39.0,low,low-high,21.0,rod_fixing,rod_fixing,1.0,187.14499999998955,1554475734245.0,1554475734057.0,BLIND,192.0
121123,4.0,668245.0,0.3,39.0,low,low-high,21.0,rod_fixing,rod_fixing,1.0,181.9450000000361,1554475734432.0,1554475734249.0,BLIND,575.0
121419,8.0,668245.0,0.3,39.0,low,low-high,21.0,rod_fixing,rod_fixing,1.0,1364.7050000000745,1554475786256.0,1554475784890.0,BLIND,1371.0
121420,8.0,668245.0,0.3,39.0,low,low-high,21.0,rod_fixing,rod_fixing,1.0,187.45500000001633,1554475786449.0,1554475786261.0,BLIND,193.0
121421,8.0,668245.0,0.3,39.0,low,low-high,21.0,rod_fixing,rod_fixing,1.0,158.75500000006286,1554475786614.0,1554475786454.0,BLIND,165.0
121422,8.0,668245.0,0.3,39.0,low,low-high,21.0,rod_fixing,rod_fixing,1.0,160.0449999999837,1554475786780.0,1554475786619.0,BLIND,166.0
121423,8.0,668245.0,0.3,39.0,low,low-high,21.0,rod_fixing,rod_fixing,1.0,160.9700000000303,1554475786947.0,1554475786785.0,BLIND,167.0
121424,8.0,668245.0,0.3,39.0,low,low-high,21.0,rod_fixing,rod_fixing,1.0,174.56500000000233,1554475787128.0,1554475786952.0,BLIND,181.0
121425,8.0,668245.0,0.3,39.0,low,low-high,21.0,rod_fixing,rod_fixing,1.0,181.5950000000303,1554475787316.0,1554475787133.0,BLIND,188.0
121426,8.0,668245.0,0.3,39.0,low,low-high,21.0,rod_fixing,rod_fixing,1.0,170.8999999999651,1554475787493.0,1554475787321.0,BLIND,188.0
121632,11.0,668245.0,0.1,39.0,low,low-high,21.0,rod_fixing,rod_fixing,1.0,2150.810000000114,1554475826301.0,1554475824150.0,BLIND,2156.0
121633,11.0,668245.0,0.1,39.0,low,low-high,21.0,rod_fixing,rod_fixing,1.0,195.0799999999581,1554475826502.0,1554475826306.0,BLIND,201.0
121634,11.0,668245.0,0.1,39.0,low,low-high,21.0,rod_fixing,rod_fixing,1.0,197.8649999999907,1554475826706.0,1554475826507.0,BLIND,204.0
121635,11.0,668245.0,0.1,39.0,low,low-high,21.0,rod_fixing,rod_fixing,1.0,182.73499999998603,1554475826894.0,1554475826711.0,BLIND,188.0
121636,11.0,668245.0,0.1,39.0,low,low-high,21.0,rod_fixing,rod_fixing,1.0,175.60999999998603,1554475827075.0,1554475826899.0,BLIND,182.0
121637,11.0,668245.0,0.1,39.0,low,low-high,21.0,rod_fixing,rod_fixing,1.0,190.1050000000396,1554475827272.0,1554475827081.0,BLIND,196.0
121638,11.0,668245.0,0.1,39.0,low,low-high,21.0,rod_fixing,rod_fixing,1.0,201.09999999997672,1554475827478.0,1554475827277.0,BLIND,207.0
121639,11.0,668245.0,0.1,39.0,low,low-high,21.0,rod_fixing,rod_fixing,1.0,176.18499999993946,1554475827661.0,1554475827484.0,BLIND,195.0
121947,3.0,668245.0,0.1,39.0,high,high-low,12.0,rod_fixing,rod_fixing,1.0,1132.3700000000536,1554475920054.0,1554475918921.0,BLIND,1140.0
121948,3.0,668245.0,0.1,39.0,high,high-low,12.0,rod_fixing,rod_fixing,1.0,145.70000000006985,1554475920207.0,1554475920061.0,BLIND,153.0
121949,3.0,668245.0,0.1,39.0,high,high-low,12.0,rod_fixing,rod_fixing,1.0,133.7149999999674,1554475920348.0,1554475920214.0,BLIND,141.0
121950,3.0,668245.0,0.1,39.0,high,high-low,12.0,rod_fixing,rod_fixing,1.0,130.19999999995343,1554475920486.0,1554475920355.0,BLIND,138.0
121951,3.0,668245.0,0.1,39.0,high,high-low,12.0,rod_fixing,rod_fixing,1.0,151.6149999999907,1554475920645.0,1554475920493.0,BLIND,159.0
121952,3.0,668245.0,0.1,39.0,high,high-low,12.0,rod_fixing,rod_fixing,1.0,150.03000000002794,1554475920803.0,1554475920652.0,BLIND,157.0
121953,3.0,668245.0,0.1,39.0,high,high-low,12.0,rod_fixing,rod_fixing,1.0,137.12999999994645,1554475920947.0,1554475920809.0,BLIND,145.0
121954,3.0,668245.0,0.1,39.0,high,high-low,12.0,rod_fixing,rod_fixing,1.0,365.07499999995343,1554475921320.0,1554475920954.0,BLIND,390.0
122259,7.0,668245.0,0.7,39.0,high,high-low,12.0,rod_fixing,rod_fixing,1.0,755.8199999998906,1554475972049.0,1554475971292.0,BLIND,763.0
122260,7.0,668245.0,0.7,39.0,high,high-low,12.0,rod_fixing,rod_fixing,1.0,156.8250000000116,1554475972212.0,1554475972055.0,BLIND,163.0
122261,7.0,668245.0,0.7,39.0,high,high-low,12.0,rod_fixing,rod_fixing,1.0,153.09000000002558,1554475972372.0,1554475972218.0,BLIND,159.0
122262,7.0,668245.0,0.7,39.0,high,high-low,12.0,rod_fixing,rod_fixing,1.0,164.5999999998603,1554475972542.0,1554475972377.0,BLIND,172.0
122263,7.0,668245.0,0.7,39.0,high,high-low,12.0,rod_fixing,rod_fixing,1.0,179.50500000006286,1554475972730.0,1554475972549.0,BLIND,187.0
122264,7.0,668245.0,0.7,39.0,high,high-low,12.0,rod_fixing,rod_fixing,1.0,174.06499999994412,1554475972910.0,1554475972736.0,BLIND,182.0
122265,7.0,668245.0,0.7,39.0,high,high-low,12.0,rod_fixing,rod_fixing,1.0,163.12500000005818,1554475973082.0,1554475972918.0,BLIND,171.0
122266,7.0,668245.0,0.7,39.0,high,high-low,12.0,rod_fixing,rod_fixing,1.0,352.09499999997206,1554475973442.0,1554475973089.0,BLIND,375.0
122554,11.0,668245.0,0.1,39.0,high,high-low,12.0,rod_fixing,rod_fixing,1.0,738.8250000001863,1554476024201.0,1554476023461.0,BLIND,746.0
122555,11.0,668245.0,0.1,39.0,high,high-low,12.0,rod_fixing,rod_fixing,1.0,228.9000000001397,1554476024437.0,1554476024207.0,BLIND,238.0
122556,11.0,668245.0,0.1,39.0,high,high-low,12.0,rod_fixing,rod_fixing,1.0,171.0450000000419,1554476024616.0,1554476024445.0,BLIND,179.0
122557,11.0,668245.0,0.1,39.0,high,high-low,12.0,rod_fixing,rod_fixing,1.0,224.79999999993012,1554476024850.0,1554476024624.0,BLIND,232.0
122558,11.0,668245.0,0.1,39.0,high,high-low,12.0,rod_fixing,rod_fixing,1.0,193.3349999998464,1554476025050.0,1554476024856.0,BLIND,201.0
122559,11.0,668245.0,0.1,39.0,high,high-low,12.0,rod_fixing,rod_fixing,1.0,188.92499999993012,1554476025246.0,1554476025057.0,BLIND,197.0
122560,11.0,668245.0,0.1,39.0,high,high-low,12.0,rod_fixing,rod_fixing,1.0,227.91499999992084,1554476025482.0,1554476025254.0,BLIND,444.0
122949,4.0,668245.0,0.3,39.0,high,high-low,22.0,rod_fixing,rod_fixing,1.0,1272.1650000001534,1554476125040.0,1554476123768.0,BLIND,1281.0
122950,4.0,668245.0,0.3,39.0,high,high-low,22.0,rod_fixing,rod_fixing,1.0,170.34000000020026,1554476125220.0,1554476125049.0,BLIND,180.0
122951,4.0,668245.0,0.3,39.0,high,high-low,22.0,rod_fixing,rod_fixing,1.0,147.8199999998324,1554476125377.0,1554476125229.0,BLIND,156.0
122952,4.0,668245.0,0.3,39.0,high,high-low,22.0,rod_fixing,rod_fixing,1.0,163.410000000149,1554476125549.0,1554476125385.0,BLIND,171.0
122953,4.0,668245.0,0.3,39.0,high,high-low,22.0,rod_fixing,rod_fixing,1.0,172.77500000002328,1554476125730.0,1554476125556.0,BLIND,181.0
122954,4.0,668245.0,0.3,39.0,high,high-low,22.0,rod_fixing,rod_fixing,1.0,178.50500000012107,1554476125916.0,1554476125737.0,BLIND,187.0
122955,4.0,668245.0,0.3,39.0,high,high-low,22.0,rod_fixing,rod_fixing,1.0,173.61999999999534,1554476126099.0,1554476125924.0,BLIND,184.0
122956,4.0,668245.0,0.3,39.0,high,high-low,22.0,rod_fixing,rod_fixing,1.0,171.1150000001071,1554476126280.0,1554476126108.0,BLIND,198.0
123249,8.0,668245.0,0.3,39.0,high,high-low,22.0,rod_fixing,rod_fixing,1.0,669.9699999999722,1554476176671.0,1554476176000.0,BLIND,678.0
123250,8.0,668245.0,0.3,39.0,high,high-low,22.0,rod_fixing,rod_fixing,1.0,179.59999999997672,1554476176859.0,1554476176678.0,BLIND,190.0
123251,8.0,668245.0,0.3,39.0,high,high-low,22.0,rod_fixing,rod_fixing,1.0,156.39500000001863,1554476177025.0,1554476176868.0,BLIND,166.0
123252,8.0,668245.0,0.3,39.0,high,high-low,22.0,rod_fixing,rod_fixing,1.0,151.43999999982768,1554476177186.0,1554476177034.0,BLIND,161.0
123253,8.0,668245.0,0.3,39.0,high,high-low,22.0,rod_fixing,rod_fixing,1.0,160.67500000004657,1554476177356.0,1554476177195.0,BLIND,170.0
123254,8.0,668245.0,0.3,39.0,high,high-low,22.0,rod_fixing,rod_fixing,1.0,167.8199999998324,1554476177533.0,1554476177365.0,BLIND,178.0
123255,8.0,668245.0,0.3,39.0,high,high-low,22.0,rod_fixing,rod_fixing,1.0,177.8299999998417,1554476177721.0,1554476177543.0,BLIND,185.0
123256,8.0,668245.0,0.3,39.0,high,high-low,22.0,rod_fixing,rod_fixing,1.0,182.6699999999255,1554476177911.0,1554476177728.0,BLIND,209.0
123479,11.0,668245.0,0.1,39.0,high,high-low,22.0,rod_fixing,rod_fixing,1.0,1240.5549999998186,1554476216538.0,1554476215297.0,BLIND,1249.0
123480,11.0,668245.0,0.1,39.0,high,high-low,22.0,rod_fixing,rod_fixing,1.0,179.33500000007916,1554476216726.0,1554476216546.0,BLIND,189.0
123481,11.0,668245.0,0.1,39.0,high,high-low,22.0,rod_fixing,rod_fixing,1.0,165.60499999998137,1554476216902.0,1554476216735.0,BLIND,176.0
123482,11.0,668245.0,0.1,39.0,high,high-low,22.0,rod_fixing,rod_fixing,1.0,175.6350000000093,1554476217088.0,1554476216911.0,BLIND,185.0
123483,11.0,668245.0,0.1,39.0,high,high-low,22.0,rod_fixing,rod_fixing,1.0,204.53499999979977,1554476217301.0,1554476217096.0,BLIND,212.0
123484,11.0,668245.0,0.1,39.0,high,high-low,22.0,rod_fixing,rod_fixing,1.0,169.214999999851,1554476217478.0,1554476217308.0,BLIND,586.0
7975,3.0,668246.0,2.5,39.0,high,high-low,11.0,rod_fixing,rod_fixing,1.0,911.4150000095833,1554475572768.0,1554475571855.0,BLIND,919.0
7976,3.0,668246.0,2.5,39.0,high,high-low,11.0,rod_fixing,rod_fixing,1.0,128.1250000174623,1554475572903.0,1554475572774.0,BLIND,132.0
7977,3.0,668246.0,2.5,39.0,high,high-low,11.0,rod_fixing,rod_fixing,1.0,132.55999999819323,1554475573039.0,1554475572906.0,BLIND,135.0
7978,3.0,668246.0,2.5,39.0,high,high-low,11.0,rod_fixing,rod_fixing,1.0,141.14500000141558,1554475573183.0,1554475573041.0,BLIND,144.0
7979,3.0,668246.0,2.5,39.0,high,high-low,11.0,rod_fixing,rod_fixing,1.0,141.01500000106168,1554475573327.0,1554475573185.0,BLIND,145.0
7980,3.0,668246.0,2.5,39.0,high,high-low,11.0,rod_fixing,rod_fixing,1.0,140.28000002144836,1554475573471.0,1554475573330.0,BLIND,143.0
7981,3.0,668246.0,2.5,39.0,high,high-low,11.0,rod_fixing,rod_fixing,1.0,133.15000000875443,1554475573607.0,1554475573473.0,BLIND,136.0
7982,3.0,668246.0,2.5,39.0,high,high-low,11.0,rod_fixing,rod_fixing,1.0,140.5899999954272,1554475573751.0,1554475573609.0,BLIND,155.0
8316,7.0,668246.0,1.2,39.0,high,high-low,11.0,rod_fixing,rod_fixing,1.0,457.47999998275185,1554475624686.0,1554475624227.0,BLIND,463.0
8317,7.0,668246.0,1.2,39.0,high,high-low,11.0,rod_fixing,rod_fixing,1.0,145.98000000114553,1554475624838.0,1554475624690.0,BLIND,150.0
8318,7.0,668246.0,1.2,39.0,high,high-low,11.0,rod_fixing,rod_fixing,1.0,141.28499999060298,1554475624982.0,1554475624840.0,BLIND,144.0
8319,7.0,668246.0,1.2,39.0,high,high-low,11.0,rod_fixing,rod_fixing,1.0,149.23999999882653,1554475625134.0,1554475624984.0,BLIND,152.0
8320,7.0,668246.0,1.2,39.0,high,high-low,11.0,rod_fixing,rod_fixing,1.0,132.76500001666136,1554475625269.0,1554475625136.0,BLIND,136.0
8321,7.0,668246.0,1.2,39.0,high,high-low,11.0,rod_fixing,rod_fixing,1.0,132.94500001939014,1554475625406.0,1554475625272.0,BLIND,136.0
8322,7.0,668246.0,1.2,39.0,high,high-low,11.0,rod_fixing,rod_fixing,1.0,148.8200000021607,1554475625558.0,1554475625408.0,BLIND,312.0
8639,11.0,668246.0,0.3,39.0,high,high-low,11.0,rod_fixing,rod_fixing,1.0,410.4600000136997,1554475676943.0,1554475676532.0,BLIND,415.0
8640,11.0,668246.0,0.3,39.0,high,high-low,11.0,rod_fixing,rod_fixing,1.0,139.3099999986589,1554475677087.0,1554475676947.0,BLIND,143.0
8641,11.0,668246.0,0.3,39.0,high,high-low,11.0,rod_fixing,rod_fixing,1.0,141.52000000467527,1554475677232.0,1554475677090.0,BLIND,144.0
8642,11.0,668246.0,0.3,39.0,high,high-low,11.0,rod_fixing,rod_fixing,1.0,128.0900000128895,1554475677363.0,1554475677234.0,BLIND,132.0
8643,11.0,668246.0,0.3,39.0,high,high-low,11.0,rod_fixing,rod_fixing,1.0,145.17499998328276,1554475677512.0,1554475677366.0,BLIND,148.0
8644,11.0,668246.0,0.3,39.0,high,high-low,11.0,rod_fixing,rod_fixing,1.0,133.60000000102443,1554475677649.0,1554475677514.0,BLIND,138.0
8645,11.0,668246.0,0.3,39.0,high,high-low,11.0,rod_fixing,rod_fixing,1.0,139.6099999838043,1554475677792.0,1554475677652.0,BLIND,293.0
9062,4.0,668246.0,1.8,39.0,high,high-low,21.0,rod_fixing,rod_fixing,1.0,591.6699999943377,1554475759820.0,1554475759228.0,BLIND,598.0
9063,4.0,668246.0,1.8,39.0,high,high-low,21.0,rod_fixing,rod_fixing,1.0,153.3449999988079,1554475759980.0,1554475759826.0,BLIND,159.0
9064,4.0,668246.0,1.8,39.0,high,high-low,21.0,rod_fixing,rod_fixing,1.0,131.33999999263324,1554475760117.0,1554475759985.0,BLIND,136.0
9065,4.0,668246.0,1.8,39.0,high,high-low,21.0,rod_fixing,rod_fixing,1.0,139.85999999567866,1554475760262.0,1554475760121.0,BLIND,145.0
9066,4.0,668246.0,1.8,39.0,high,high-low,21.0,rod_fixing,rod_fixing,1.0,138.3050000004005,1554475760404.0,1554475760266.0,BLIND,142.0
9067,4.0,668246.0,1.8,39.0,high,high-low,21.0,rod_fixing,rod_fixing,1.0,148.01500001340173,1554475760556.0,1554475760408.0,BLIND,153.0
9068,4.0,668246.0,1.8,39.0,high,high-low,21.0,rod_fixing,rod_fixing,1.0,146.81999999447726,1554475760708.0,1554475760561.0,BLIND,151.0
9069,4.0,668246.0,1.8,39.0,high,high-low,21.0,rod_fixing,rod_fixing,1.0,420.19999999320135,1554475761133.0,1554475760712.0,BLIND,441.0
9384,8.0,668246.0,0.3,39.0,high,high-low,21.0,rod_fixing,rod_fixing,1.0,493.0199999944307,1554475812151.0,1554475811657.0,BLIND,496.0
9385,8.0,668246.0,0.3,39.0,high,high-low,21.0,rod_fixing,rod_fixing,1.0,150.1200000056997,1554475812303.0,1554475812153.0,BLIND,154.0
9386,8.0,668246.0,0.3,39.0,high,high-low,21.0,rod_fixing,rod_fixing,1.0,123.04999999469145,1554475812431.0,1554475812307.0,BLIND,129.0
9387,8.0,668246.0,0.3,39.0,high,high-low,21.0,rod_fixing,rod_fixing,1.0,130.21000000298955,1554475812567.0,1554475812436.0,BLIND,135.0
9388,8.0,668246.0,0.3,39.0,high,high-low,21.0,rod_fixing,rod_fixing,1.0,155.880000005709,1554475812727.0,1554475812571.0,BLIND,160.0
9389,8.0,668246.0,0.3,39.0,high,high-low,21.0,rod_fixing,rod_fixing,1.0,139.6499999973457,1554475812871.0,1554475812731.0,BLIND,454.0
9624,11.0,668246.0,2.5,39.0,high,high-low,21.0,rod_fixing,rod_fixing,1.0,444.64499998139223,1554475851278.0,1554475850833.0,BLIND,450.0
9929,3.0,668246.0,2.5,39.0,low,high-low,12.0,rod_fixing,rod_fixing,1.0,567.6199999870732,1554475937636.0,1554475937066.0,BLIND,576.0
9930,3.0,668246.0,2.5,39.0,low,high-low,12.0,rod_fixing,rod_fixing,1.0,161.56999999657273,1554475937805.0,1554475937642.0,BLIND,168.0
9931,3.0,668246.0,2.5,39.0,low,high-low,12.0,rod_fixing,rod_fixing,1.0,153.09000000706874,1554475937963.0,1554475937810.0,BLIND,158.0
9932,3.0,668246.0,2.5,39.0,low,high-low,12.0,rod_fixing,rod_fixing,1.0,187.1450000035111,1554475938155.0,1554475937968.0,BLIND,192.0
9933,3.0,668246.0,2.5,39.0,low,high-low,12.0,rod_fixing,rod_fixing,1.0,154.99999999883585,1554475938315.0,1554475938160.0,BLIND,161.0
9934,3.0,668246.0,2.5,39.0,low,high-low,12.0,rod_fixing,rod_fixing,1.0,169.7449999919627,1554475938491.0,1554475938321.0,BLIND,178.0
9935,3.0,668246.0,2.5,39.0,low,high-low,12.0,rod_fixing,rod_fixing,1.0,175.52499999874271,1554475938675.0,1554475938499.0,BLIND,374.0
10226,7.0,668246.0,1.2,39.0,low,high-low,12.0,rod_fixing,rod_fixing,1.0,524.5799999975134,1554475989927.0,1554475989401.0,BLIND,536.0
10227,7.0,668246.0,1.2,39.0,low,high-low,12.0,rod_fixing,rod_fixing,1.0,147.94500000425614,1554475990085.0,1554475989937.0,BLIND,151.0
10228,7.0,668246.0,1.2,39.0,low,high-low,12.0,rod_fixing,rod_fixing,1.0,134.2000000004191,1554475990223.0,1554475990088.0,BLIND,139.0
10229,7.0,668246.0,1.2,39.0,low,high-low,12.0,rod_fixing,rod_fixing,1.0,178.36999997962266,1554475990406.0,1554475990227.0,BLIND,190.0
10230,7.0,668246.0,1.2,39.0,low,high-low,12.0,rod_fixing,rod_fixing,1.0,149.17999997851442,1554475990567.0,1554475990417.0,BLIND,159.0
10231,7.0,668246.0,1.2,39.0,low,high-low,12.0,rod_fixing,rod_fixing,1.0,173.34999999729916,1554475990750.0,1554475990576.0,BLIND,178.0
10232,7.0,668246.0,1.2,39.0,low,high-low,12.0,rod_fixing,rod_fixing,1.0,186.5399999951478,1554475990941.0,1554475990754.0,BLIND,387.0
10525,11.0,668246.0,0.3,39.0,low,high-low,12.0,rod_fixing,rod_fixing,1.0,661.7049999767913,1554476042261.0,1554476041598.0,BLIND,669.0
10526,11.0,668246.0,0.3,39.0,low,high-low,12.0,rod_fixing,rod_fixing,1.0,160.81000000122003,1554476042429.0,1554476042267.0,BLIND,167.0
10527,11.0,668246.0,0.3,39.0,low,high-low,12.0,rod_fixing,rod_fixing,1.0,186.20499997632575,1554476042621.0,1554476042434.0,BLIND,192.0
10528,11.0,668246.0,0.3,39.0,low,high-low,12.0,rod_fixing,rod_fixing,1.0,169.83500000787902,1554476042797.0,1554476042626.0,BLIND,179.0
10529,11.0,668246.0,0.3,39.0,low,high-low,12.0,rod_fixing,rod_fixing,1.0,190.86000000243075,1554476042997.0,1554476042805.0,BLIND,196.0
10530,11.0,668246.0,0.3,39.0,low,high-low,12.0,rod_fixing,rod_fixing,1.0,171.28500001854263,1554476043173.0,1554476043001.0,BLIND,177.0
10531,11.0,668246.0,0.3,39.0,low,high-low,12.0,rod_fixing,rod_fixing,1.0,185.9799999801908,1554476043365.0,1554476043178.0,BLIND,395.0
10907,4.0,668246.0,1.8,39.0,low,high-low,22.0,rod_fixing,rod_fixing,1.0,520.4300000041259,1554476137009.0,1554476136488.0,BLIND,526.0
10908,4.0,668246.0,1.8,39.0,low,high-low,22.0,rod_fixing,rod_fixing,1.0,179.19500000425614,1554476137193.0,1554476137014.0,BLIND,184.0
10909,4.0,668246.0,1.8,39.0,low,high-low,22.0,rod_fixing,rod_fixing,1.0,162.1600000071339,1554476137361.0,1554476137198.0,BLIND,167.0
10910,4.0,668246.0,1.8,39.0,low,high-low,22.0,rod_fixing,rod_fixing,1.0,187.66499997582287,1554476137553.0,1554476137365.0,BLIND,195.0
10911,4.0,668246.0,1.8,39.0,low,high-low,22.0,rod_fixing,rod_fixing,1.0,168.25499999686144,1554476137729.0,1554476137560.0,BLIND,175.0
10912,4.0,668246.0,1.8,39.0,low,high-low,22.0,rod_fixing,rod_fixing,1.0,169.1149999969639,1554476137905.0,1554476137735.0,BLIND,175.0
10913,4.0,668246.0,1.8,39.0,low,high-low,22.0,rod_fixing,rod_fixing,1.0,170.54500000085682,1554476138082.0,1554476137910.0,BLIND,176.0
11181,8.0,668246.0,0.3,39.0,low,high-low,22.0,rod_fixing,rod_fixing,1.0,533.4150000126101,1554476189411.0,1554476188877.0,BLIND,538.0
11182,8.0,668246.0,0.3,39.0,low,high-low,22.0,rod_fixing,rod_fixing,1.0,179.05999999493358,1554476189595.0,1554476189415.0,BLIND,183.0
11183,8.0,668246.0,0.3,39.0,low,high-low,22.0,rod_fixing,rod_fixing,1.0,188.2000000041444,1554476189787.0,1554476189598.0,BLIND,192.0
11184,8.0,668246.0,0.3,39.0,low,high-low,22.0,rod_fixing,rod_fixing,1.0,180.74000001070092,1554476189971.0,1554476189790.0,BLIND,185.0
11185,8.0,668246.0,0.3,39.0,low,high-low,22.0,rod_fixing,rod_fixing,1.0,187.43499999982305,1554476190163.0,1554476189975.0,BLIND,191.0
11186,8.0,668246.0,0.3,39.0,low,high-low,22.0,rod_fixing,rod_fixing,1.0,196.60000002477318,1554476190363.0,1554476190166.0,BLIND,200.0
11187,8.0,668246.0,0.3,39.0,low,high-low,22.0,rod_fixing,rod_fixing,1.0,204.8499999800697,1554476190571.0,1554476190366.0,BLIND,210.0
11397,11.0,668246.0,2.5,39.0,low,high-low,22.0,rod_fixing,rod_fixing,1.0,464.4200000038836,1554476228590.0,1554476228125.0,BLIND,474.0
11398,11.0,668246.0,2.5,39.0,low,high-low,22.0,rod_fixing,rod_fixing,1.0,174.97500000172298,1554476228774.0,1554476228599.0,BLIND,181.0
11399,11.0,668246.0,2.5,39.0,low,high-low,22.0,rod_fixing,rod_fixing,1.0,162.175000004936,1554476228942.0,1554476228780.0,BLIND,168.0
11400,11.0,668246.0,2.5,39.0,low,high-low,22.0,rod_fixing,rod_fixing,1.0,185.18500000936908,1554476229134.0,1554476228948.0,BLIND,193.0
11401,11.0,668246.0,2.5,39.0,low,high-low,22.0,rod_fixing,rod_fixing,1.0,233.36000001290813,1554476229375.0,1554476229141.0,BLIND,241.0
11402,11.0,668246.0,2.5,39.0,low,high-low,22.0,rod_fixing,rod_fixing,1.0,160.51000001607463,1554476229543.0,1554476229382.0,BLIND,169.0
11403,11.0,668246.0,2.5,39.0,low,high-low,22.0,rod_fixing,rod_fixing,1.0,174.25500001991168,1554476229726.0,1554476229551.0,BLIND,387.0
116400,3.0,668249.0,0.3,39.0,low,low-high,11.0,rod_fixing,rod_fixing,1.0,809.555000000044,1554475497586.0,1554475496776.0,BLIND,813.0
116401,3.0,668249.0,0.3,39.0,low,low-high,11.0,rod_fixing,rod_fixing,1.0,148.5499999998865,1554475497738.0,1554475497589.0,BLIND,151.0
116402,3.0,668249.0,0.3,39.0,low,low-high,11.0,rod_fixing,rod_fixing,1.0,141.9399999999805,1554475497882.0,1554475497740.0,BLIND,144.0
116403,3.0,668249.0,0.3,39.0,low,low-high,11.0,rod_fixing,rod_fixing,1.0,150.1299999999901,1554475498034.0,1554475497884.0,BLIND,151.0
116404,3.0,668249.0,0.3,39.0,low,low-high,11.0,rod_fixing,rod_fixing,1.0,150.2749999999651,1554475498186.0,1554475498035.0,BLIND,152.0
116405,3.0,668249.0,0.3,39.0,low,low-high,11.0,rod_fixing,rod_fixing,1.0,150.24500000004628,1554475498338.0,1554475498187.0,BLIND,153.0
116406,3.0,668249.0,0.3,39.0,low,low-high,11.0,rod_fixing,rod_fixing,1.0,158.26500000002852,1554475498498.0,1554475498340.0,BLIND,160.0
116407,3.0,668249.0,0.3,39.0,low,low-high,11.0,rod_fixing,rod_fixing,1.0,150.0199999998149,1554475498650.0,1554475498500.0,BLIND,155.0
116704,7.0,668249.0,0.7,39.0,low,low-high,11.0,rod_fixing,rod_fixing,1.0,685.189999999915,1554475549794.0,1554475549108.0,BLIND,688.0
116705,7.0,668249.0,0.7,39.0,low,low-high,11.0,rod_fixing,rod_fixing,1.0,150.04500000010012,1554475549946.0,1554475549796.0,BLIND,152.0
116706,7.0,668249.0,0.7,39.0,low,low-high,11.0,rod_fixing,rod_fixing,1.0,142.18000000005122,1554475550090.0,1554475549948.0,BLIND,144.0
116707,7.0,668249.0,0.7,39.0,low,low-high,11.0,rod_fixing,rod_fixing,1.0,165.92000000014374,1554475550258.0,1554475550092.0,BLIND,168.0
116708,7.0,668249.0,0.7,39.0,low,low-high,11.0,rod_fixing,rod_fixing,1.0,150.18499999995404,1554475550410.0,1554475550260.0,BLIND,152.0
116709,7.0,668249.0,0.7,39.0,low,low-high,11.0,rod_fixing,rod_fixing,1.0,142.0799999998417,1554475550554.0,1554475550412.0,BLIND,143.0
116710,7.0,668249.0,0.7,39.0,low,low-high,11.0,rod_fixing,rod_fixing,1.0,166.34500000008848,1554475550722.0,1554475550555.0,BLIND,169.0
116711,7.0,668249.0,0.7,39.0,low,low-high,11.0,rod_fixing,rod_fixing,1.0,157.05499999989115,1554475550882.0,1554475550724.0,BLIND,163.0
116996,11.0,668249.0,1.2,39.0,low,low-high,11.0,rod_fixing,rod_fixing,1.0,484.2899999998626,1554475601819.0,1554475601334.0,BLIND,486.0
116997,11.0,668249.0,1.2,39.0,low,low-high,11.0,rod_fixing,rod_fixing,1.0,157.8250000000116,1554475601978.0,1554475601820.0,BLIND,160.0
116998,11.0,668249.0,1.2,39.0,low,low-high,11.0,rod_fixing,rod_fixing,1.0,149.86999999996627,1554475602131.0,1554475601980.0,BLIND,152.0
116999,11.0,668249.0,1.2,39.0,low,low-high,11.0,rod_fixing,rod_fixing,1.0,165.88000000000466,1554475602298.0,1554475602132.0,BLIND,168.0
117000,11.0,668249.0,1.2,39.0,low,low-high,11.0,rod_fixing,rod_fixing,1.0,157.88499999986382,1554475602459.0,1554475602300.0,BLIND,161.0
117001,11.0,668249.0,1.2,39.0,low,low-high,11.0,rod_fixing,rod_fixing,1.0,157.95999999999182,1554475602619.0,1554475602461.0,BLIND,160.0
117002,11.0,668249.0,1.2,39.0,low,low-high,11.0,rod_fixing,rod_fixing,1.0,165.76499999995576,1554475602787.0,1554475602621.0,BLIND,168.0
117003,11.0,668249.0,1.2,39.0,low,low-high,11.0,rod_fixing,rod_fixing,1.0,157.65999999985797,1554475602946.0,1554475602789.0,BLIND,165.0
117375,4.0,668249.0,0.7,39.0,low,low-high,21.0,rod_fixing,rod_fixing,1.0,628.0950000000303,1554475719204.0,1554475718575.0,BLIND,631.0
117376,4.0,668249.0,0.7,39.0,low,low-high,21.0,rod_fixing,rod_fixing,1.0,157.23000000001048,1554475719364.0,1554475719206.0,BLIND,160.0
117377,4.0,668249.0,0.7,39.0,low,low-high,21.0,rod_fixing,rod_fixing,1.0,157.6850000001432,1554475719524.0,1554475719366.0,BLIND,162.0
117378,4.0,668249.0,0.7,39.0,low,low-high,21.0,rod_fixing,rod_fixing,1.0,163.7149999999092,1554475719692.0,1554475719528.0,BLIND,168.0
117379,4.0,668249.0,0.7,39.0,low,low-high,21.0,rod_fixing,rod_fixing,1.0,171.36499999990338,1554475719867.0,1554475719696.0,BLIND,174.0
117380,4.0,668249.0,0.7,39.0,low,low-high,21.0,rod_fixing,rod_fixing,1.0,165.53999999997905,1554475720036.0,1554475719870.0,BLIND,168.0
117381,4.0,668249.0,0.7,39.0,low,low-high,21.0,rod_fixing,rod_fixing,1.0,148.980000000156,1554475720187.0,1554475720038.0,BLIND,152.0
117382,4.0,668249.0,0.7,39.0,low,low-high,21.0,rod_fixing,rod_fixing,1.0,165.8649999999907,1554475720356.0,1554475720190.0,BLIND,177.0
117678,8.0,668249.0,1.8,39.0,low,low-high,21.0,rod_fixing,rod_fixing,1.0,832.3199999999488,1554475771620.0,1554475770788.0,BLIND,834.0
117679,8.0,668249.0,1.8,39.0,low,low-high,21.0,rod_fixing,rod_fixing,1.0,175.2399999999907,1554475771798.0,1554475771622.0,BLIND,179.0
117680,8.0,668249.0,1.8,39.0,low,low-high,21.0,rod_fixing,rod_fixing,1.0,153.8149999998859,1554475771956.0,1554475771801.0,BLIND,157.0
117681,8.0,668249.0,1.8,39.0,low,low-high,21.0,rod_fixing,rod_fixing,1.0,181.36000000004424,1554475772140.0,1554475771958.0,BLIND,184.0
117682,8.0,668249.0,1.8,39.0,low,low-high,21.0,rod_fixing,rod_fixing,1.0,181.63999999978114,1554475772324.0,1554475772142.0,BLIND,184.0
117683,8.0,668249.0,1.8,39.0,low,low-high,21.0,rod_fixing,rod_fixing,1.0,165.38999999989755,1554475772492.0,1554475772326.0,BLIND,168.0
117684,8.0,668249.0,1.8,39.0,low,low-high,21.0,rod_fixing,rod_fixing,1.0,157.94499999994878,1554475772652.0,1554475772494.0,BLIND,160.0
117685,8.0,668249.0,1.8,39.0,low,low-high,21.0,rod_fixing,rod_fixing,1.0,159.15999999991618,1554475772813.0,1554475772654.0,BLIND,170.0
117888,11.0,668249.0,0.3,39.0,low,low-high,21.0,rod_fixing,rod_fixing,1.0,813.1100000000442,1554475810789.0,1554475809975.0,BLIND,816.0
117889,11.0,668249.0,0.3,39.0,low,low-high,21.0,rod_fixing,rod_fixing,1.0,133.12499999988358,1554475810924.0,1554475810791.0,BLIND,136.0
117890,11.0,668249.0,0.3,39.0,low,low-high,21.0,rod_fixing,rod_fixing,1.0,133.13000000012107,1554475811060.0,1554475810927.0,BLIND,136.0
117891,11.0,668249.0,0.3,39.0,low,low-high,21.0,rod_fixing,rod_fixing,1.0,156.66499999997905,1554475811220.0,1554475811063.0,BLIND,160.0
117892,11.0,668249.0,0.3,39.0,low,low-high,21.0,rod_fixing,rod_fixing,1.0,133.3500000000931,1554475811356.0,1554475811223.0,BLIND,136.0
117893,11.0,668249.0,0.3,39.0,low,low-high,21.0,rod_fixing,rod_fixing,1.0,149.43500000005588,1554475811508.0,1554475811359.0,BLIND,152.0
117894,11.0,668249.0,0.3,39.0,low,low-high,21.0,rod_fixing,rod_fixing,1.0,133.07000000006522,1554475811644.0,1554475811511.0,BLIND,136.0
117895,11.0,668249.0,0.3,39.0,low,low-high,21.0,rod_fixing,rod_fixing,1.0,125.27000000001864,1554475811772.0,1554475811647.0,BLIND,135.0
118223,3.0,668249.0,0.3,39.0,high,high-low,12.0,rod_fixing,rod_fixing,1.0,707.0949999999721,1554475949477.0,1554475948769.0,BLIND,710.0
118224,3.0,668249.0,0.3,39.0,high,high-low,12.0,rod_fixing,rod_fixing,1.0,125.33499999996278,1554475949605.0,1554475949479.0,BLIND,131.0
118225,3.0,668249.0,0.3,39.0,high,high-low,12.0,rod_fixing,rod_fixing,1.0,378.199999999837,1554475949989.0,1554475949610.0,BLIND,382.0
118226,3.0,668249.0,0.3,39.0,high,high-low,12.0,rod_fixing,rod_fixing,1.0,148.03000000008615,1554475950140.0,1554475949992.0,BLIND,151.0
118227,3.0,668249.0,0.3,39.0,high,high-low,12.0,rod_fixing,rod_fixing,1.0,125.14000000007219,1554475950268.0,1554475950143.0,BLIND,130.0
118228,3.0,668249.0,0.3,39.0,high,high-low,12.0,rod_fixing,rod_fixing,1.0,107.0299999998533,1554475950380.0,1554475950273.0,BLIND,110.0
118229,3.0,668249.0,0.3,39.0,high,high-low,12.0,rod_fixing,rod_fixing,1.0,117.17499999981372,1554475950500.0,1554475950383.0,BLIND,120.0
