id,environment,trial_label,trial_index,price_displayed,key pressed,order,round_instance,task,function_id,quality_check,builtin_rt,end_time,start_time,Participant Public ID,key_pressed,latency
668220.0,high,11.0 12.0,7,7,7,7,7,7,7,7,7,7,7,7,7,7
668220.0,high,11.0 22.0,7,7,7,7,7,7,7,7,7,7,7,7,7,7
668220.0,high,3.0 12.0,8,8,8,8,8,8,8,8,8,8,8,8,8,8
668220.0,high,4.0 22.0,7,7,7,7,7,7,7,7,7,7,7,7,7,7
668220.0,high,7.0 12.0,7,7,7,7,7,7,7,7,7,7,7,7,7,7
668220.0,high,8.0 22.0,7,7,7,7,7,7,7,7,7,7,7,7,7,7
668220.0,low,11.0 11.0,7,7,7,7,7,7,7,7,7,7,7,7,7,7
668220.0,low,11.0 21.0,8,8,8,8,8,8,8,8,8,8,8,8,8,8
668220.0,low,3.0 11.0,8,8,8,8,8,8,8,8,8,8,8,8,8,8
668220.0,low,4.0 21.0,7,7,7,7,7,7,7,7,7,7,7,7,7,7
668220.0,low,7.0 11.0,8,8,8,8,8,8,8,8,8,8,8,8,8,8
668220.0,low,8.0 21.0,8,8,8,8,8,8,8,8,8,8,8,8,8,8
668225.0,high,11.0 12.0,7,7,7,7,7,7,7,7,7,7,7,7,7,7
668225.0,high,11.0 22.0,8,8,8,8,8,8,8,8,8,8,8,8,8,8
668225.0,high,3.0 12.0,7,7,7,7,7,7,7,7,7,7,7,7,7,7
668225.0,high,4.0 22.0,7,7,7,7,7,7,7,7,7,7,7,7,7,7
668225.0,high,7.0 12.0,7,7,7,7,7,7,7,7,7,7,7,7,7,7
668225.0,high,8.0 22.0,7,7,7,7,7,7,7,7,7,7,7,7,7,7
668225.0,low,11.0 11.0,7,7,7,7,7,7,7,7,7,7,7,7,7,7
668225.0,low,11.0 21.0,8,8,8,8,8,8,8,8,8,8,8,8,8,8
668225.0,low,3.0 11.0,8,8,8,8,8,8,8,8,8,8,8,8,8,8
668225.0,low,4.0 21.0,7,7,7,7,7,7,7,7,7,7,7,7,7,7
668225.0,low,7.0 11.0,8,8,8,8,8,8,8,8,8,8,8,8,8,8
668225.0,low,8.0 21.0,7,7,7,7,7,7,7,7,7,7,7,7,7,7
668237.0,high,11.0 11.0,7,7,7,7,7,7,7,7,7,7,7,7,7,7
668237.0,high,11.0 21.0,7,7,7,7,7,7,7,7,7,7,7,7,7,7
668237.0,high,3.0 11.0,7,7,7,7,7,7,7,7,7,7,7,7,7,7
668237.0,high,4.0 21.0,8,8,8,8,8,8,8,8,8,8,8,8,8,8
668237.0,high,7.0 11.0,7,7,7,7,7,7,7,7,7,7,7,7,7,7
668237.0,high,8.0 21.0,8,8,8,8,8,8,8,8,8,8,8,8,8,8
668237.0,low,11.0 12.0,7,7,7,7,7,7,7,7,7,7,7,7,7,7
668237.0,low,11.0 22.0,7,7,7,7,7,7,7,7,7,7,7,7,7,7
668237.0,low,3.0 12.0,7,7,7,7,7,7,7,7,7,7,7,7,7,7
668237.0,low,4.0 22.0,1,1,1,1,1,1,1,1,1,1,1,1,1,1
668237.0,low,7.0 12.0,7,7,7,7,7,7,7,7,7,7,7,7,7,7
668237.0,low,8.0 22.0,8,8,8,8,8,8,8,8,8,8,8,8,8,7
668239.0,high,11.0 11.0,8,8,8,8,8,8,8,8,8,8,8,8,8,7
668239.0,high,11.0 21.0,7,7,7,7,7,7,7,7,7,7,7,7,7,7
668239.0,high,3.0 11.0,7,7,7,7,7,7,7,7,7,7,7,7,7,7
668239.0,high,4.0 21.0,6,6,6,6,6,6,6,6,6,6,6,6,6,6
668239.0,high,7.0 11.0,8,8,8,8,8,8,8,8,8,8,8,8,8,8
668239.0,high,8.0 21.0,6,6,6,6,6,6,6,6,6,6,6,6,6,6
668239.0,low,11.0 12.0,7,7,7,7,7,7,7,7,7,7,7,7,7,7
668239.0,low,11.0 22.0,7,7,7,7,7,7,7,7,7,7,7,7,7,7
668239.0,low,3.0 12.0,8,8,8,8,8,8,8,8,8,8,8,8,8,8
668239.0,low,4.0 22.0,7,7,7,7,7,7,7,7,7,7,7,7,7,7
668239.0,low,7.0 12.0,7,7,7,7,7,7,7,7,7,7,7,7,7,7
668239.0,low,8.0 22.0,7,7,7,7,7,7,7,7,7,7,7,7,7,7
668240.0,high,11.0 12.0,8,8,8,8,8,8,8,8,8,8,8,8,8,8
668240.0,high,11.0 22.0,8,8,8,8,8,8,8,8,8,8,8,8,8,8
668240.0,high,3.0 12.0,8,8,8,8,8,8,8,8,8,8,8,8,8,8
668240.0,high,7.0 12.0,8,8,8,8,8,8,8,8,8,8,8,8,8,8
668240.0,high,8.0 22.0,8,8,8,8,8,8,8,8,8,8,8,8,8,8
668240.0,low,11.0 11.0,8,8,8,8,8,8,8,8,8,8,8,8,8,8
668240.0,low,11.0 21.0,8,8,8,8,8,8,8,8,8,8,8,8,8,8
668240.0,low,3.0 11.0,8,8,8,8,8,8,8,8,8,8,8,8,8,8
668240.0,low,4.0 21.0,8,8,8,8,8,8,8,8,8,8,8,8,8,8
668240.0,low,7.0 11.0,8,8,8,8,8,8,8,8,8,8,8,8,8,8
668240.0,low,8.0 21.0,8,8,8,8,8,8,8,8,8,8,8,8,8,8
668244.0,high,11.0 11.0,7,7,7,7,7,7,7,7,7,7,7,7,7,7
668244.0,high,11.0 21.0,8,8,8,8,8,8,8,8,8,8,8,8,8,8
668244.0,high,3.0 11.0,8,8,8,8,8,8,8,8,8,8,8,8,8,8
668244.0,high,4.0 21.0,8,8,8,8,8,8,8,8,8,8,8,8,8,8
668244.0,high,7.0 11.0,7,7,7,7,7,7,7,7,7,7,7,7,7,7
668244.0,high,8.0 21.0,7,7,7,7,7,7,7,7,7,7,7,7,7,7
668244.0,low,11.0 12.0,8,8,8,8,8,8,8,8,8,8,8,8,8,8
668244.0,low,11.0 22.0,8,8,8,8,8,8,8,8,8,8,8,8,8,8
668244.0,low,3.0 12.0,8,8,8,8,8,8,8,8,8,8,8,8,8,8
668244.0,low,4.0 22.0,8,8,8,8,8,8,8,8,8,8,8,8,8,7
668244.0,low,7.0 12.0,8,8,8,8,8,8,8,8,8,8,8,8,8,7
668244.0,low,8.0 22.0,3,3,3,3,3,3,3,3,3,3,3,3,3,3
668245.0,high,11.0 12.0,7,7,7,7,7,7,7,7,7,7,7,7,7,7
668245.0,high,11.0 22.0,6,6,6,6,6,6,6,6,6,6,6,6,6,6
668245.0,high,3.0 12.0,8,8,8,8,8,8,8,8,8,8,8,8,8,7
668245.0,high,4.0 22.0,8,8,8,8,8,8,8,8,8,8,8,8,8,8
668245.0,high,7.0 12.0,8,8,8,8,8,8,8,8,8,8,8,8,8,8
668245.0,high,8.0 22.0,8,8,8,8,8,8,8,8,8,8,8,8,8,8
668245.0,low,11.0 11.0,8,8,8,8,8,8,8,8,8,8,8,8,8,8
668245.0,low,11.0 21.0,8,8,8,8,8,8,8,8,8,8,8,8,8,8
668245.0,low,3.0 11.0,8,8,8,8,8,8,8,8,8,8,8,8,8,8
668245.0,low,4.0 21.0,6,6,6,6,6,6,6,6,6,6,6,6,6,6
668245.0,low,7.0 11.0,8,8,8,8,8,8,8,8,8,8,8,8,8,8
668245.0,low,8.0 21.0,8,8,8,8,8,8,8,8,8,8,8,8,8,8
668246.0,high,11.0 11.0,7,7,7,7,7,7,7,7,7,7,7,7,7,7
668246.0,high,11.0 21.0,1,1,1,1,1,1,1,1,1,1,1,1,1,1
668246.0,high,3.0 11.0,8,8,8,8,8,8,8,8,8,8,8,8,8,8
668246.0,high,4.0 21.0,8,8,8,8,8,8,8,8,8,8,8,8,8,8
668246.0,high,7.0 11.0,7,7,7,7,7,7,7,7,7,7,7,7,7,7
668246.0,high,8.0 21.0,6,6,6,6,6,6,6,6,6,6,6,6,6,6
668246.0,low,11.0 12.0,7,7,7,7,7,7,7,7,7,7,7,7,7,7
668246.0,low,11.0 22.0,7,7,7,7,7,7,7,7,7,7,7,7,7,7
668246.0,low,3.0 12.0,7,7,7,7,7,7,7,7,7,7,7,7,7,7
668246.0,low,4.0 22.0,7,7,7,7,7,7,7,7,7,7,7,7,7,7
668246.0,low,7.0 12.0,7,7,7,7,7,7,7,7,7,7,7,7,7,7
668246.0,low,8.0 22.0,7,7,7,7,7,7,7,7,7,7,7,7,7,7
668249.0,high,11.0 12.0,7,7,7,7,7,7,7,7,7,7,7,7,7,7
668249.0,high,11.0 22.0,6,6,6,6,6,6,6,6,6,6,6,6,6,6
668249.0,high,3.0 12.0,8,8,8,8,8,8,8,8,8,8,8,8,8,8
668249.0,high,4.0 22.0,8,8,8,8,8,8,8,8,8,8,8,8,8,8
668249.0,high,7.0 12.0,8,8,8,8,8,8,8,8,8,8,8,8,8,8
668249.0,high,8.0 22.0,8,8,8,8,8,8,8,8,8,8,8,8,8,8
668249.0,low,11.0 11.0,8,8,8,8,8,8,8,8,8,8,8,8,8,8
668249.0,low,11.0 21.0,8,8,8,8,8,8,8,8,8,8,8,8,8,8
668249.0,low,3.0 11.0,8,8,8,8,8,8,8,8,8,8,8,8,8,8
668249.0,low,4.0 21.0,8,8,8,8,8,8,8,8,8,8,8,8,8,8
668249.0,low,7.0 11.0,8,8,8,8,8,8,8,8,8,8,8,8,8,8
668249.0,low,8.0 21.0,8,8,8,8,8,8,8,8,8,8,8,8,8,8
668251.0,high,11.0 11.0,8,8,8,8,8,8,8,8,8,8,8,8,8,8
668251.0,high,11.0 21.0,8,8,8,8,8,8,8,8,8,8,8,8,8,8
668251.0,high,3.0 11.0,8,8,8,8,8,8,8,8,8,8,8,8,8,8
668251.0,high,4.0 21.0,8,8,8,8,8,8,8,8,8,8,8,8,8,8
668251.0,high,7.0 11.0,8,8,8,8,8,8,8,8,8,8,8,8,8,8
668251.0,high,8.0 21.0,6,6,6,6,6,6,6,6,6,6,6,6,6,6
668251.0,low,11.0 22.0,8,8,8,8,8,8,8,8,8,8,8,8,8,8
668251.0,low,3.0 12.0,8,8,8,8,8,8,8,8,8,8,8,8,8,8
668251.0,low,4.0 22.0,8,8,8,8,8,8,8,8,8,8,8,8,8,8
668251.0,low,8.0 22.0,8,8,8,8,8,8,8,8,8,8,8,8,8,8
668253.0,high,11.0 12.0,8,8,8,8,8,8,8,8,8,8,8,8,8,8
668253.0,high,11.0 22.0,2,2,2,2,2,2,2,2,2,2,2,2,2,2
668253.0,high,3.0 12.0,8,8,8,8,8,8,8,8,8,8,8,8,8,8
668253.0,high,4.0 22.0,8,8,8,8,8,8,8,8,8,8,8,8,8,8
668253.0,high,7.0 12.0,8,8,8,8,8,8,8,8,8,8,8,8,8,8
668253.0,high,8.0 22.0,8,8,8,8,8,8,8,8,8,8,8,8,8,8
668253.0,low,11.0 11.0,8,8,8,8,8,8,8,8,8,8,8,8,8,8
668253.0,low,11.0 21.0,4,4,4,4,4,4,4,4,4,4,4,4,4,4
668253.0,low,3.0 11.0,7,7,7,7,7,7,7,7,7,7,7,7,7,7
668253.0,low,4.0 21.0,8,8,8,8,8,8,8,8,8,8,8,8,8,8
668253.0,low,7.0 11.0,8,8,8,8,8,8,8,8,8,8,8,8,8,8
668253.0,low,8.0 21.0,8,8,8,8,8,8,8,8,8,8,8,8,8,8
668254.0,high,11.0 12.0,7,7,7,7,7,7,7,7,7,7,7,7,7,7
668254.0,high,11.0 22.0,7,7,7,7,7,7,7,7,7,7,7,7,7,7
668254.0,high,3.0 12.0,8,8,8,8,8,8,8,8,8,8,8,8,8,8
668254.0,high,4.0 22.0,11,11,7,11,11,11,11,11,7,7,8,11,7,7
668254.0,high,7.0 12.0,6,6,6,6,6,6,6,6,6,6,6,6,6,6
668254.0,high,8.0 22.0,7,7,7,7,7,7,7,7,7,7,7,7,7,7
668254.0,low,11.0 11.0,7,7,7,7,7,7,7,7,7,7,7,7,7,7
668254.0,low,11.0 21.0,7,7,7,7,7,7,7,7,7,7,7,7,7,7
668254.0,low,3.0 11.0,8,8,8,8,8,8,8,8,8,8,8,8,8,8
668254.0,low,4.0 21.0,7,7,7,7,7,7,7,7,7,7,7,7,7,7
668254.0,low,7.0 11.0,7,7,7,7,7,7,7,7,7,7,7,7,7,7
668254.0,low,8.0 21.0,7,7,7,7,7,7,7,7,7,7,7,7,7,7
668263.0,high,11.0 11.0,8,8,8,8,8,8,8,8,8,8,8,8,8,8
668263.0,high,11.0 21.0,8,8,8,8,8,8,8,8,8,8,8,8,8,8
668263.0,high,3.0 11.0,8,8,8,8,8,8,8,8,8,8,8,8,8,8
668263.0,high,4.0 21.0,8,8,8,8,8,8,8,8,8,8,8,8,8,8
668263.0,high,7.0 11.0,8,8,8,8,8,8,8,8,8,8,8,8,8,8
668263.0,low,11.0 12.0,8,8,8,8,8,8,8,8,8,8,8,8,8,8
668263.0,low,11.0 22.0,8,8,8,8,8,8,8,8,8,8,8,8,8,8
668263.0,low,3.0 12.0,8,8,8,8,8,8,8,8,8,8,8,8,8,8
668263.0,low,4.0 22.0,8,8,8,8,8,8,8,8,8,8,8,8,8,8
668263.0,low,7.0 12.0,8,8,8,8,8,8,8,8,8,8,8,8,8,8
668263.0,low,8.0 22.0,6,6,6,6,6,6,6,6,6,6,6,6,6,6
668267.0,high,11.0 12.0,6,6,6,6,6,6,6,6,6,6,6,6,6,6
668267.0,high,11.0 22.0,4,4,4,4,4,4,4,4,4,4,4,4,4,4
668267.0,high,3.0 12.0,4,4,4,4,4,4,4,4,4,4,4,4,4,4
668267.0,high,4.0 22.0,6,6,6,6,6,6,6,6,6,6,6,6,6,6
668267.0,high,7.0 12.0,7,7,7,7,7,7,7,7,7,7,7,7,7,7
668267.0,high,8.0 22.0,10,10,7,10,10,10,10,10,7,7,7,10,7,6
668267.0,low,11.0 11.0,6,6,6,6,6,6,6,6,6,6,6,6,6,6
668267.0,low,11.0 21.0,7,7,7,7,7,7,7,7,7,7,7,7,7,7
668267.0,low,3.0 11.0,7,7,7,7,7,7,7,7,7,7,7,7,7,7
668267.0,low,4.0 21.0,7,7,7,7,7,7,7,7,7,7,7,7,7,7
668267.0,low,7.0 11.0,7,7,7,7,7,7,7,7,7,7,7,7,7,7
668267.0,low,8.0 21.0,3,3,3,3,3,3,3,3,3,3,3,3,3,3
668270.0,high,11.0 12.0,8,8,8,8,8,8,8,8,8,8,8,8,8,7
668270.0,high,11.0 22.0,8,8,8,8,8,8,8,8,8,8,8,8,8,8
668270.0,high,3.0 12.0,8,8,8,8,8,8,8,8,8,8,8,8,8,8
668270.0,high,4.0 22.0,7,7,7,7,7,7,7,7,7,7,7,7,7,7
668270.0,high,7.0 12.0,8,8,8,8,8,8,8,8,8,8,8,8,8,8
668270.0,high,8.0 22.0,6,6,6,6,6,6,6,6,6,6,6,6,6,6
668270.0,low,11.0 11.0,8,8,8,8,8,8,8,8,8,8,8,8,8,8
668270.0,low,11.0 21.0,1,1,1,1,1,1,1,1,1,1,1,1,1,1
668270.0,low,3.0 11.0,10,10,10,10,10,10,10,10,10,10,10,10,10,10
668270.0,low,4.0 21.0,8,8,8,8,8,8,8,8,8,8,8,8,8,8
668270.0,low,7.0 11.0,5,5,5,5,5,5,5,5,5,5,5,5,5,5
668270.0,low,8.0 21.0,8,8,8,8,8,8,8,8,8,8,8,8,8,8
668274.0,high,11.0 11.0,11,11,7,11,11,11,11,11,7,7,8,11,7,7
668274.0,high,11.0 21.0,8,8,8,8,8,8,8,8,8,8,8,8,8,8
668274.0,high,3.0 11.0,7,7,7,7,7,7,7,7,7,7,7,7,7,7
668274.0,high,4.0 21.0,4,4,4,4,4,4,4,4,4,4,4,4,4,4
668274.0,high,7.0 11.0,7,7,7,7,7,7,7,7,7,7,7,7,7,7
668274.0,high,8.0 21.0,8,8,8,8,8,8,8,8,8,8,8,8,8,7
668274.0,low,11.0 12.0,7,7,7,7,7,7,7,7,7,7,7,7,7,7
668274.0,low,11.0 22.0,8,8,8,8,8,8,8,8,8,8,8,8,8,7
668274.0,low,3.0 12.0,8,8,8,8,8,8,8,8,8,8,8,8,8,8
668274.0,low,4.0 22.0,8,8,8,8,8,8,8,8,8,8,8,8,8,7
668274.0,low,7.0 12.0,8,8,8,8,8,8,8,8,8,8,8,8,8,8
668274.0,low,8.0 22.0,6,6,6,6,6,6,6,6,6,6,6,6,6,6
668370.0,high,11.0 11.0,8,8,8,8,8,8,8,8,8,8,8,8,8,8
668370.0,high,11.0 21.0,8,8,8,8,8,8,8,8,8,8,8,8,8,8
668370.0,high,3.0 11.0,8,8,8,8,8,8,8,8,8,8,8,8,8,8
668370.0,high,4.0 21.0,8,8,8,8,8,8,8,8,8,8,8,8,8,8
668370.0,high,7.0 11.0,8,8,8,8,8,8,8,8,8,8,8,8,8,8
668370.0,high,8.0 21.0,8,8,8,8,8,8,8,8,8,8,8,8,8,8
668370.0,low,11.0 12.0,8,8,8,8,8,8,8,8,8,8,8,8,8,8
668370.0,low,11.0 22.0,8,8,8,8,8,8,8,8,8,8,8,8,8,7
668370.0,low,3.0 12.0,8,8,8,8,8,8,8,8,8,8,8,8,8,8
668370.0,low,4.0 22.0,8,8,8,8,8,8,8,8,8,8,8,8,8,7
668370.0,low,7.0 12.0,8,8,8,8,8,8,8,8,8,8,8,8,8,8
668370.0,low,8.0 22.0,8,8,8,8,8,8,8,8,8,8,8,8,8,8
672044.0,high,11.0 11.0,8,8,8,8,8,8,8,8,8,8,8,8,8,8
672044.0,high,11.0 21.0,8,8,8,8,8,8,8,8,8,8,8,8,8,8
672044.0,high,3.0 11.0,8,8,8,8,8,8,8,8,8,8,8,8,8,8
672044.0,high,4.0 21.0,8,8,8,8,8,8,8,8,8,8,8,8,8,8
672044.0,high,7.0 11.0,8,8,8,8,8,8,8,8,8,8,8,8,8,8
672044.0,high,8.0 21.0,8,8,8,8,8,8,8,8,8,8,8,8,8,8
672044.0,low,11.0 12.0,8,8,8,8,8,8,8,8,8,8,8,8,8,8
672044.0,low,11.0 22.0,8,8,8,8,8,8,8,8,8,8,8,8,8,8
672044.0,low,3.0 12.0,8,8,8,8,8,8,8,8,8,8,8,8,8,8
672044.0,low,4.0 22.0,8,8,8,8,8,8,8,8,8,8,8,8,8,8
672044.0,low,7.0 12.0,8,8,8,8,8,8,8,8,8,8,8,8,8,8
672044.0,low,8.0 22.0,8,8,8,8,8,8,8,8,8,8,8,8,8,7
672045.0,high,11.0 11.0,8,8,8,8,8,8,8,8,8,8,8,8,8,8
672045.0,high,11.0 21.0,5,5,5,5,5,5,5,5,5,5,5,5,5,5
672045.0,high,3.0 11.0,8,8,8,8,8,8,8,8,8,8,8,8,8,8
672045.0,high,4.0 21.0,7,7,7,7,7,7,7,7,7,7,7,7,7,7
672045.0,high,7.0 11.0,8,8,8,8,8,8,8,8,8,8,8,8,8,8
672045.0,high,8.0 21.0,8,8,8,8,8,8,8,8,8,8,8,8,8,8
672045.0,low,11.0 12.0,8,8,8,8,8,8,8,8,8,8,8,8,8,8
672045.0,low,11.0 22.0,7,7,7,7,7,7,7,7,7,7,7,7,7,7
672045.0,low,3.0 12.0,7,7,7,7,7,7,7,7,7,7,7,7,7,7
672045.0,low,4.0 22.0,8,8,8,8,8,8,8,8,8,8,8,8,8,8
672045.0,low,7.0 12.0,8,8,8,8,8,8,8,8,8,8,8,8,8,8
672045.0,low,8.0 22.0,7,7,7,7,7,7,7,7,7,7,7,7,7,7
672046.0,high,11.0 12.0,8,8,8,8,8,8,8,8,8,8,8,8,8,8
672046.0,high,11.0 22.0,8,8,8,8,8,8,8,8,8,8,8,8,8,8
672046.0,high,3.0 12.0,8,8,8,8,8,8,8,8,8,8,8,8,8,8
672046.0,high,4.0 22.0,8,8,8,8,8,8,8,8,8,8,8,8,8,8
672046.0,high,7.0 12.0,8,8,8,8,8,8,8,8,8,8,8,8,8,8
672046.0,high,8.0 22.0,8,8,8,8,8,8,8,8,8,8,8,8,8,8
672046.0,low,11.0 11.0,8,8,8,8,8,8,8,8,8,8,8,8,8,8
672046.0,low,11.0 21.0,8,8,8,8,8,8,8,8,8,8,8,8,8,8
672046.0,low,3.0 11.0,8,8,8,8,8,8,8,8,8,8,8,8,8,8
672046.0,low,4.0 21.0,8,8,8,8,8,8,8,8,8,8,8,8,8,8
672046.0,low,7.0 11.0,8,8,8,8,8,8,8,8,8,8,8,8,8,8
672046.0,low,8.0 21.0,8,8,8,8,8,8,8,8,8,8,8,8,8,8
672581.0,high,11.0 11.0,8,8,8,8,8,8,8,8,8,8,8,8,8,8
672581.0,high,11.0 21.0,8,8,8,8,8,8,8,8,8,8,8,8,8,8
672581.0,high,3.0 11.0,8,8,8,8,8,8,8,8,8,8,8,8,8,8
672581.0,high,4.0 21.0,8,8,8,8,8,8,8,8,8,8,8,8,8,8
672581.0,high,7.0 11.0,8,8,8,8,8,8,8,8,8,8,8,8,8,8
672581.0,high,8.0 21.0,8,8,8,8,8,8,8,8,8,8,8,8,8,8
672581.0,low,11.0 12.0,8,8,8,8,8,8,8,8,8,8,8,8,8,8
672581.0,low,11.0 22.0,5,5,5,5,5,5,5,5,5,5,5,5,5,5
672581.0,low,3.0 12.0,8,8,8,8,8,8,8,8,8,8,8,8,8,8
672581.0,low,4.0 22.0,8,8,8,8,8,8,8,8,8,8,8,8,8,7
672581.0,low,7.0 12.0,8,8,8,8,8,8,8,8,8,8,8,8,8,8
672581.0,low,8.0 22.0,8,8,8,8,8,8,8,8,8,8,8,8,8,8
672582.0,high,11.0 12.0,8,8,8,8,8,8,8,8,8,8,8,8,8,8
672582.0,high,11.0 22.0,8,8,8,8,8,8,8,8,8,8,8,8,8,8
672582.0,high,3.0 12.0,8,8,8,8,8,8,8,8,8,8,8,8,8,8
672582.0,high,4.0 22.0,8,8,8,8,8,8,8,8,8,8,8,8,8,8
672582.0,high,7.0 12.0,8,8,8,8,8,8,8,8,8,8,8,8,8,8
672582.0,high,8.0 22.0,8,8,8,8,8,8,8,8,8,8,8,8,8,8
672582.0,low,11.0 11.0,8,8,8,8,8,8,8,8,8,8,8,8,8,8
672582.0,low,11.0 21.0,8,8,8,8,8,8,8,8,8,8,8,8,8,8
672582.0,low,3.0 11.0,8,8,8,8,8,8,8,8,8,8,8,8,8,8
672582.0,low,4.0 21.0,8,8,8,8,8,8,8,8,8,8,8,8,8,8
672582.0,low,7.0 11.0,8,8,8,8,8,8,8,8,8,8,8,8,8,8
672582.0,low,8.0 21.0,8,8,8,8,8,8,8,8,8,8,8,8,8,8
672585.0,high,11.0 12.0,8,8,8,8,8,8,8,8,8,8,8,8,8,8
672585.0,high,11.0 22.0,8,8,8,8,8,8,8,8,8,8,8,8,8,8
672585.0,high,3.0 12.0,8,8,8,8,8,8,8,8,8,8,8,8,8,8
672585.0,high,4.0 22.0,7,7,7,7,7,7,7,7,7,7,7,7,7,7
672585.0,high,7.0 12.0,8,8,8,8,8,8,8,8,8,8,8,8,8,8
672585.0,high,8.0 22.0,8,8,8,8,8,8,8,8,8,8,8,8,8,8
672585.0,low,11.0 11.0,8,8,8,8,8,8,8,8,8,8,8,8,8,8
672585.0,low,11.0 21.0,8,8,8,8,8,8,8,8,8,8,8,8,8,8
672585.0,low,3.0 11.0,8,8,8,8,8,8,8,8,8,8,8,8,8,8
672585.0,low,4.0 21.0,8,8,8,8,8,8,8,8,8,8,8,8,8,8
672585.0,low,7.0 11.0,8,8,8,8,8,8,8,8,8,8,8,8,8,8
672585.0,low,8.0 21.0,8,8,8,8,8,8,8,8,8,8,8,8,8,8
672586.0,high,11.0 12.0,8,8,8,8,8,8,8,8,8,8,8,8,8,8
672586.0,high,11.0 22.0,8,8,8,8,8,8,8,8,8,8,8,8,8,8
672586.0,high,3.0 12.0,8,8,8,8,8,8,8,8,8,8,8,8,8,8
672586.0,high,4.0 22.0,8,8,8,8,8,8,8,8,8,8,8,8,8,8
672586.0,high,7.0 12.0,7,7,7,7,7,7,7,7,7,7,7,7,7,7
672586.0,high,8.0 22.0,8,8,8,8,8,8,8,8,8,8,8,8,8,8
672586.0,low,11.0 11.0,8,8,8,8,8,8,8,8,8,8,8,8,8,8
672586.0,low,11.0 21.0,8,8,8,8,8,8,8,8,8,8,8,8,8,8
672586.0,low,3.0 11.0,8,8,8,8,8,8,8,8,8,8,8,8,8,8
672586.0,low,4.0 21.0,7,7,7,7,7,7,7,7,7,7,7,7,7,7
672586.0,low,7.0 11.0,6,6,6,6,6,6,6,6,6,6,6,6,6,6
672586.0,low,8.0 21.0,8,8,8,8,8,8,8,8,8,8,8,8,8,8
672587.0,high,11.0 12.0,8,8,8,8,8,8,8,8,8,8,8,8,8,8
672587.0,high,11.0 22.0,8,8,8,8,8,8,8,8,8,8,8,8,8,8
672587.0,high,3.0 12.0,8,8,8,8,8,8,8,8,8,8,8,8,8,8
672587.0,high,4.0 22.0,8,8,8,8,8,8,8,8,8,8,8,8,8,8
672587.0,high,7.0 12.0,8,8,8,8,8,8,8,8,8,8,8,8,8,8
672587.0,high,8.0 22.0,8,8,8,8,8,8,8,8,8,8,8,8,8,8
672587.0,low,11.0 11.0,8,8,8,8,8,8,8,8,8,8,8,8,8,8
672587.0,low,11.0 21.0,7,7,7,7,7,7,7,7,7,7,7,7,7,7
672587.0,low,3.0 11.0,8,8,8,8,8,8,8,8,8,8,8,8,8,8
672587.0,low,4.0 21.0,8,8,8,8,8,8,8,8,8,8,8,8,8,8
672587.0,low,7.0 11.0,8,8,8,8,8,8,8,8,8,8,8,8,8,8
672587.0,low,8.0 21.0,8,8,8,8,8,8,8,8,8,8,8,8,8,8
672588.0,high,11.0 11.0,8,8,8,8,8,8,8,8,8,8,8,8,8,8
672588.0,high,11.0 21.0,8,8,8,8,8,8,8,8,8,8,8,8,8,8
672588.0,high,3.0 11.0,8,8,8,8,8,8,8,8,8,8,8,8,8,8
672588.0,high,4.0 21.0,8,8,8,8,8,8,8,8,8,8,8,8,8,8
672588.0,high,7.0 11.0,8,8,8,8,8,8,8,8,8,8,8,8,8,8
672588.0,high,8.0 21.0,8,8,8,8,8,8,8,8,8,8,8,8,8,8
672588.0,low,11.0 12.0,8,8,8,8,8,8,8,8,8,8,8,8,8,8
672588.0,low,11.0 22.0,8,8,8,8,8,8,8,8,8,8,8,8,8,8
672588.0,low,3.0 12.0,8,8,8,8,8,8,8,8,8,8,8,8,8,8
672588.0,low,4.0 22.0,7,7,7,7,7,7,7,7,7,7,7,7,7,7
672588.0,low,7.0 12.0,8,8,8,8,8,8,8,8,8,8,8,8,8,8
672588.0,low,8.0 22.0,8,8,8,8,8,8,8,8,8,8,8,8,8,8
672590.0,high,11.0 11.0,8,8,8,8,8,8,8,8,8,8,8,8,8,8
672590.0,high,11.0 21.0,8,8,8,8,8,8,8,8,8,8,8,8,8,8
672590.0,high,3.0 11.0,7,7,7,7,7,7,7,7,7,7,7,7,7,7
672590.0,high,4.0 21.0,8,8,8,8,8,8,8,8,8,8,8,8,8,8
672590.0,high,7.0 11.0,8,8,8,8,8,8,8,8,8,8,8,8,8,8
672590.0,high,8.0 21.0,8,8,8,8,8,8,8,8,8,8,8,8,8,8
672590.0,low,11.0 12.0,8,8,8,8,8,8,8,8,8,8,8,8,8,8
672590.0,low,11.0 22.0,8,8,8,8,8,8,8,8,8,8,8,8,8,7
672590.0,low,3.0 12.0,8,8,8,8,8,8,8,8,8,8,8,8,8,8
672590.0,low,4.0 22.0,8,8,8,8,8,8,8,8,8,8,8,8,8,7
672590.0,low,7.0 12.0,8,8,8,8,8,8,8,8,8,8,8,8,8,8
672590.0,low,8.0 22.0,8,8,8,8,8,8,8,8,8,8,8,8,8,7
672592.0,high,11.0 11.0,8,8,8,8,8,8,8,8,8,8,8,8,8,8
672592.0,high,11.0 21.0,8,8,8,8,8,8,8,8,8,8,8,8,8,8
672592.0,high,3.0 11.0,8,8,8,8,8,8,8,8,8,8,8,8,8,8
672592.0,high,4.0 21.0,8,8,8,8,8,8,8,8,8,8,8,8,8,8
672592.0,high,7.0 11.0,8,8,8,8,8,8,8,8,8,8,8,8,8,8
672592.0,high,8.0 21.0,8,8,8,8,8,8,8,8,8,8,8,8,8,8
672592.0,low,11.0 12.0,8,8,8,8,8,8,8,8,8,8,8,8,8,8
672592.0,low,11.0 22.0,8,8,8,8,8,8,8,8,8,8,8,8,8,8
672592.0,low,3.0 12.0,8,8,8,8,8,8,8,8,8,8,8,8,8,8
672592.0,low,4.0 22.0,8,8,8,8,8,8,8,8,8,8,8,8,8,8
672592.0,low,7.0 12.0,8,8,8,8,8,8,8,8,8,8,8,8,8,8
672592.0,low,8.0 22.0,8,8,8,8,8,8,8,8,8,8,8,8,8,8
672593.0,high,3.0 12.0,8,8,8,8,8,8,8,8,8,8,8,8,8,7
672593.0,low,11.0 11.0,8,8,8,8,8,8,8,8,8,8,8,8,8,8
672593.0,low,3.0 11.0,6,6,6,6,6,6,6,6,6,6,6,6,6,6
672593.0,low,4.0 21.0,1,1,1,1,1,1,1,1,1,1,1,1,1,1
672593.0,low,7.0 11.0,7,7,7,7,7,7,7,7,7,7,7,7,7,7
672593.0,low,8.0 21.0,16,16,13,16,16,16,16,16,13,13,13,16,13,12
672594.0,high,11.0 11.0,8,8,8,8,8,8,8,8,8,8,8,8,8,8
672594.0,high,11.0 21.0,8,8,8,8,8,8,8,8,8,8,8,8,8,8
672594.0,high,3.0 11.0,8,8,8,8,8,8,8,8,8,8,8,8,8,8
672594.0,high,4.0 21.0,8,8,8,8,8,8,8,8,8,8,8,8,8,8
672594.0,high,7.0 11.0,8,8,8,8,8,8,8,8,8,8,8,8,8,8
672594.0,high,8.0 21.0,8,8,8,8,8,8,8,8,8,8,8,8,8,8
672594.0,low,11.0 12.0,8,8,8,8,8,8,8,8,8,8,8,8,8,8
672594.0,low,11.0 22.0,7,7,7,7,7,7,7,7,7,7,7,7,7,7
672594.0,low,3.0 12.0,8,8,8,8,8,8,8,8,8,8,8,8,8,8
672594.0,low,4.0 22.0,8,8,8,8,8,8,8,8,8,8,8,8,8,8
672594.0,low,7.0 12.0,8,8,8,8,8,8,8,8,8,8,8,8,8,8
672594.0,low,8.0 22.0,8,8,8,8,8,8,8,8,8,8,8,8,8,8
672595.0,high,11.0 12.0,8,8,8,8,8,8,8,8,8,8,8,8,8,8
672595.0,high,11.0 22.0,8,8,8,8,8,8,8,8,8,8,8,8,8,8
672595.0,high,3.0 12.0,8,8,8,8,8,8,8,8,8,8,8,8,8,8
672595.0,high,4.0 22.0,8,8,8,8,8,8,8,8,8,8,8,8,8,8
672595.0,high,7.0 12.0,8,8,8,8,8,8,8,8,8,8,8,8,8,8
672595.0,high,8.0 22.0,8,8,8,8,8,8,8,8,8,8,8,8,8,8
672595.0,low,11.0 11.0,8,8,8,8,8,8,8,8,8,8,8,8,8,8
672595.0,low,11.0 21.0,8,8,8,8,8,8,8,8,8,8,8,8,8,8
672595.0,low,3.0 11.0,8,8,8,8,8,8,8,8,8,8,8,8,8,8
672595.0,low,4.0 21.0,8,8,8,8,8,8,8,8,8,8,8,8,8,8
672595.0,low,7.0 11.0,8,8,8,8,8,8,8,8,8,8,8,8,8,8
672595.0,low,8.0 21.0,6,6,6,6,6,6,6,6,6,6,6,6,6,6
672596.0,high,11.0 11.0,8,8,8,8,8,8,8,8,8,8,8,8,8,8
672596.0,high,11.0 21.0,8,8,8,8,8,8,8,8,8,8,8,8,8,8
672596.0,high,3.0 11.0,8,8,8,8,8,8,8,8,8,8,8,8,8,8
672596.0,high,4.0 21.0,8,8,8,8,8,8,8,8,8,8,8,8,8,8
672596.0,high,7.0 11.0,1,1,1,1,1,1,1,1,1,1,1,1,1,1
672596.0,high,8.0 21.0,8,8,8,8,8,8,8,8,8,8,8,8,8,8
672596.0,low,11.0 12.0,8,8,8,8,8,8,8,8,8,8,8,8,8,8
672596.0,low,11.0 22.0,8,8,8,8,8,8,8,8,8,8,8,8,8,8
672596.0,low,3.0 12.0,8,8,8,8,8,8,8,8,8,8,8,8,8,8
672596.0,low,4.0 22.0,8,8,8,8,8,8,8,8,8,8,8,8,8,8
672596.0,low,7.0 12.0,8,8,8,8,8,8,8,8,8,8,8,8,8,8
672596.0,low,8.0 22.0,8,8,8,8,8,8,8,8,8,8,8,8,8,8
672611.0,high,11.0 12.0,6,6,6,6,6,6,6,6,6,6,6,6,6,6
672611.0,high,11.0 22.0,7,7,7,7,7,7,7,7,7,7,7,7,7,7
672611.0,high,3.0 12.0,7,7,7,7,7,7,7,7,7,7,7,7,7,7
672611.0,high,4.0 22.0,7,7,7,7,7,7,7,7,7,7,7,7,7,7
672611.0,high,7.0 12.0,7,7,7,7,7,7,7,7,7,7,7,7,7,7
672611.0,high,8.0 22.0,7,7,7,7,7,7,7,7,7,7,7,7,7,7
672611.0,low,11.0 11.0,7,7,7,7,7,7,7,7,7,7,7,7,7,7
672611.0,low,11.0 21.0,7,7,7,7,7,7,7,7,7,7,7,7,7,7
672611.0,low,3.0 11.0,7,7,7,7,7,7,7,7,7,7,7,7,7,7
672611.0,low,4.0 21.0,7,7,7,7,7,7,7,7,7,7,7,7,7,7
672611.0,low,7.0 11.0,7,7,7,7,7,7,7,7,7,7,7,7,7,7
672611.0,low,8.0 21.0,7,7,7,7,7,7,7,7,7,7,7,7,7,7
672614.0,high,11.0 11.0,7,7,7,7,7,7,7,7,7,7,7,7,7,7
672614.0,high,11.0 21.0,6,6,6,6,6,6,6,6,6,6,6,6,6,6
672614.0,high,3.0 11.0,7,7,7,7,7,7,7,7,7,7,7,7,7,7
672614.0,high,4.0 21.0,7,7,7,7,7,7,7,7,7,7,7,7,7,7
672614.0,high,7.0 11.0,6,6,6,6,6,6,6,6,6,6,6,6,6,6
672614.0,high,8.0 21.0,7,7,7,7,7,7,7,7,7,7,7,7,7,7
672614.0,low,11.0 12.0,6,6,6,6,6,6,6,6,6,6,6,6,6,6
672614.0,low,11.0 22.0,7,7,7,7,7,7,7,7,7,7,7,7,7,7
672614.0,low,3.0 12.0,7,7,7,7,7,7,7,7,7,7,7,7,7,7
672614.0,low,4.0 22.0,6,6,6,6,6,6,6,6,6,6,6,6,6,6
672614.0,low,7.0 12.0,6,6,6,6,6,6,6,6,6,6,6,6,6,6
672614.0,low,8.0 22.0,6,6,6,6,6,6,6,6,6,6,6,6,6,6
672655.0,high,11.0 11.0,6,6,6,6,6,6,6,6,6,6,6,6,6,6
672655.0,high,11.0 21.0,8,8,8,8,8,8,8,8,8,8,8,8,8,8
672655.0,high,3.0 11.0,7,7,7,7,7,7,7,7,7,7,7,7,7,7
672655.0,high,4.0 21.0,8,8,8,8,8,8,8,8,8,8,8,8,8,8
672655.0,high,7.0 11.0,6,6,6,6,6,6,6,6,6,6,6,6,6,6
672655.0,high,8.0 21.0,8,8,8,8,8,8,8,8,8,8,8,8,8,8
672655.0,low,11.0 12.0,8,8,8,8,8,8,8,8,8,8,8,8,8,8
672655.0,low,11.0 22.0,8,8,8,8,8,8,8,8,8,8,8,8,8,8
672655.0,low,3.0 12.0,8,8,8,8,8,8,8,8,8,8,8,8,8,8
672655.0,low,4.0 22.0,8,8,8,8,8,8,8,8,8,8,8,8,8,8
672655.0,low,7.0 12.0,8,8,8,8,8,8,8,8,8,8,8,8,8,8
672655.0,low,8.0 22.0,8,8,8,8,8,8,8,8,8,8,8,8,8,8
674197.0,high,11.0 12.0,8,8,8,8,8,8,8,8,8,8,8,8,8,8
674197.0,high,11.0 22.0,8,8,8,8,8,8,8,8,8,8,8,8,8,8
674197.0,high,3.0 12.0,8,8,8,8,8,8,8,8,8,8,8,8,8,8
674197.0,high,4.0 22.0,8,8,8,8,8,8,8,8,8,8,8,8,8,8
674197.0,high,7.0 12.0,7,7,7,7,7,7,7,7,7,7,7,7,7,7
674197.0,high,8.0 22.0,7,7,7,7,7,7,7,7,7,7,7,7,7,7
674197.0,low,11.0 11.0,7,7,7,7,7,7,7,7,7,7,7,7,7,7
674197.0,low,11.0 21.0,8,8,8,8,8,8,8,8,8,8,8,8,8,8
674197.0,low,3.0 11.0,8,8,8,8,8,8,8,8,8,8,8,8,8,8
674197.0,low,4.0 21.0,8,8,8,8,8,8,8,8,8,8,8,8,8,8
674197.0,low,7.0 11.0,8,8,8,8,8,8,8,8,8,8,8,8,8,8
674197.0,low,8.0 21.0,7,7,7,7,7,7,7,7,7,7,7,7,7,7
675515.0,high,11.0 12.0,7,7,7,7,7,7,7,7,7,7,7,7,7,7
675515.0,high,11.0 22.0,7,7,7,7,7,7,7,7,7,7,7,7,7,7
675515.0,high,3.0 12.0,7,7,7,7,7,7,7,7,7,7,7,7,7,7
675515.0,high,4.0 22.0,8,8,8,8,8,8,8,8,8,8,8,8,8,7
675515.0,high,7.0 12.0,7,7,7,7,7,7,7,7,7,7,7,7,7,7
675515.0,high,8.0 22.0,8,8,8,8,8,8,8,8,8,8,8,8,8,8
675515.0,low,11.0 11.0,8,8,8,8,8,8,8,8,8,8,8,8,8,8
675515.0,low,11.0 21.0,7,7,7,7,7,7,7,7,7,7,7,7,7,7
675515.0,low,3.0 11.0,7,7,7,7,7,7,7,7,7,7,7,7,7,7
675515.0,low,4.0 21.0,7,7,7,7,7,7,7,7,7,7,7,7,7,7
675515.0,low,7.0 11.0,6,6,6,6,6,6,6,6,6,6,6,6,6,6
675515.0,low,8.0 21.0,8,8,8,8,8,8,8,8,8,8,8,8,8,8
675579.0,high,11.0 11.0,8,8,8,8,8,8,8,8,8,8,8,8,8,8
675579.0,high,11.0 21.0,6,6,6,6,6,6,6,6,6,6,6,6,6,6
675579.0,high,3.0 11.0,7,7,7,7,7,7,7,7,7,7,7,7,7,7
675579.0,high,4.0 21.0,8,8,8,8,8,8,8,8,8,8,8,8,8,8
675579.0,high,7.0 11.0,8,8,8,8,8,8,8,8,8,8,8,8,8,8
675579.0,high,8.0 21.0,8,8,8,8,8,8,8,8,8,8,8,8,8,8
675579.0,low,11.0 12.0,8,8,8,8,8,8,8,8,8,8,8,8,8,8
675579.0,low,11.0 22.0,8,8,8,8,8,8,8,8,8,8,8,8,8,8
675579.0,low,3.0 12.0,8,8,8,8,8,8,8,8,8,8,8,8,8,8
675579.0,low,4.0 22.0,8,8,8,8,8,8,8,8,8,8,8,8,8,8
675579.0,low,7.0 12.0,8,8,8,8,8,8,8,8,8,8,8,8,8,8
675579.0,low,8.0 22.0,8,8,8,8,8,8,8,8,8,8,8,8,8,8
675592.0,high,11.0 12.0,7,7,7,7,7,7,7,7,7,7,7,7,7,7
675592.0,high,3.0 12.0,7,7,7,7,7,7,7,7,7,7,7,7,7,7
675592.0,high,4.0 22.0,7,7,7,7,7,7,7,7,7,7,7,7,7,7
675592.0,high,7.0 12.0,6,6,6,6,6,6,6,6,6,6,6,6,6,6
675592.0,high,8.0 22.0,7,7,7,7,7,7,7,7,7,7,7,7,7,7
675592.0,low,11.0 11.0,5,5,5,5,5,5,5,5,5,5,5,5,5,5
675592.0,low,11.0 21.0,7,7,7,7,7,7,7,7,7,7,7,7,7,7
675592.0,low,3.0 11.0,7,7,7,7,7,7,7,7,7,7,7,7,7,7
675592.0,low,4.0 21.0,6,6,6,6,6,6,6,6,6,6,6,6,6,6
675592.0,low,7.0 11.0,6,6,6,6,6,6,6,6,6,6,6,6,6,6
675592.0,low,8.0 21.0,7,7,7,7,7,7,7,7,7,7,7,7,7,7
675610.0,high,11.0 12.0,8,8,8,8,8,8,8,8,8,8,8,8,8,8
675610.0,high,11.0 22.0,8,8,8,8,8,8,8,8,8,8,8,8,8,8
675610.0,high,3.0 12.0,8,8,8,8,8,8,8,8,8,8,8,8,8,8
675610.0,high,4.0 22.0,6,6,6,6,6,6,6,6,6,6,6,6,6,6
675610.0,high,7.0 12.0,8,8,8,8,8,8,8,8,8,8,8,8,8,8
675610.0,high,8.0 22.0,8,8,8,8,8,8,8,8,8,8,8,8,8,8
675610.0,low,11.0 11.0,8,8,8,8,8,8,8,8,8,8,8,8,8,8
675610.0,low,11.0 21.0,8,8,8,8,8,8,8,8,8,8,8,8,8,8
675610.0,low,3.0 11.0,8,8,8,8,8,8,8,8,8,8,8,8,8,8
675610.0,low,4.0 21.0,8,8,8,8,8,8,8,8,8,8,8,8,8,8
675610.0,low,7.0 11.0,8,8,8,8,8,8,8,8,8,8,8,8,8,8
675625.0,high,11.0 21.0,7,7,7,7,7,7,7,7,7,7,7,7,7,7
675625.0,high,3.0 11.0,7,7,7,7,7,7,7,7,7,7,7,7,7,7
675625.0,high,4.0 21.0,7,7,7,7,7,7,7,7,7,7,7,7,7,7
675625.0,high,7.0 11.0,8,8,8,8,8,8,8,8,8,8,8,8,8,8
675625.0,high,8.0 21.0,8,8,8,8,8,8,8,8,8,8,8,8,8,8
675625.0,low,11.0 12.0,8,8,8,8,8,8,8,8,8,8,8,8,8,8
675625.0,low,11.0 22.0,6,6,6,6,6,6,6,6,6,6,6,6,6,6
675625.0,low,3.0 12.0,8,8,8,8,8,8,8,8,8,8,8,8,8,8
675625.0,low,4.0 22.0,8,8,8,8,8,8,8,8,8,8,8,8,8,7
675625.0,low,7.0 12.0,7,7,7,7,7,7,7,7,7,7,7,7,7,7
675625.0,low,8.0 22.0,8,8,8,8,8,8,8,8,8,8,8,8,8,8
675631.0,high,11.0 11.0,8,8,8,8,8,8,8,8,8,8,8,8,8,8
675631.0,high,11.0 21.0,5,5,5,5,5,5,5,5,5,5,5,5,5,5
675631.0,high,4.0 21.0,8,8,8,8,8,8,8,8,8,8,8,8,8,8
675631.0,high,7.0 11.0,8,8,8,8,8,8,8,8,8,8,8,8,8,8
675631.0,high,8.0 21.0,8,8,8,8,8,8,8,8,8,8,8,8,8,8
675631.0,low,11.0 12.0,8,8,8,8,8,8,8,8,8,8,8,8,8,8
675631.0,low,11.0 22.0,8,8,8,8,8,8,8,8,8,8,8,8,8,8
675631.0,low,3.0 12.0,7,7,7,7,7,7,7,7,7,7,7,7,7,7
675631.0,low,4.0 22.0,8,8,8,8,8,8,8,8,8,8,8,8,8,8
675631.0,low,7.0 12.0,8,8,8,8,8,8,8,8,8,8,8,8,8,8
675631.0,low,8.0 22.0,8,8,8,8,8,8,8,8,8,8,8,8,8,8
675635.0,high,11.0 12.0,8,8,8,8,8,8,8,8,8,8,8,8,8,8
675635.0,high,11.0 22.0,7,7,7,7,7,7,7,7,7,7,7,7,7,7
675635.0,high,3.0 12.0,7,7,7,7,7,7,7,7,7,7,7,7,7,7
675635.0,high,4.0 22.0,8,8,8,8,8,8,8,8,8,8,8,8,8,8
675635.0,high,7.0 12.0,7,7,7,7,7,7,7,7,7,7,7,7,7,7
675635.0,high,8.0 22.0,8,8,8,8,8,8,8,8,8,8,8,8,8,8
675635.0,low,11.0 11.0,8,8,8,8,8,8,8,8,8,8,8,8,8,8
675635.0,low,11.0 21.0,8,8,8,8,8,8,8,8,8,8,8,8,8,8
675635.0,low,3.0 11.0,3,3,3,3,3,3,3,3,3,3,3,3,3,3
675635.0,low,4.0 21.0,8,8,8,8,8,8,8,8,8,8,8,8,8,8
675635.0,low,7.0 11.0,8,8,8,8,8,8,8,8,8,8,8,8,8,8
675635.0,low,8.0 21.0,8,8,8,8,8,8,8,8,8,8,8,8,8,8
675636.0,high,11.0 11.0,8,8,8,8,8,8,8,8,8,8,8,8,8,8
675636.0,high,11.0 21.0,8,8,8,8,8,8,8,8,8,8,8,8,8,8
675636.0,high,3.0 11.0,8,8,8,8,8,8,8,8,8,8,8,8,8,8
675636.0,high,4.0 21.0,7,7,7,7,7,7,7,7,7,7,7,7,7,7
675636.0,high,7.0 11.0,8,8,8,8,8,8,8,8,8,8,8,8,8,8
675636.0,high,8.0 21.0,8,8,8,8,8,8,8,8,8,8,8,8,8,8
675636.0,low,11.0 12.0,7,7,7,7,7,7,7,7,7,7,7,7,7,7
675636.0,low,11.0 22.0,8,8,8,8,8,8,8,8,8,8,8,8,8,8
675636.0,low,3.0 12.0,7,7,7,7,7,7,7,7,7,7,7,7,7,7
675636.0,low,4.0 22.0,7,7,7,7,7,7,7,7,7,7,7,7,7,7
675636.0,low,7.0 12.0,7,7,7,7,7,7,7,7,7,7,7,7,7,7
675636.0,low,8.0 22.0,8,8,8,8,8,8,8,8,8,8,8,8,8,8
675643.0,high,11.0 11.0,7,7,7,7,7,7,7,7,7,7,7,7,7,7
675643.0,high,11.0 21.0,8,8,8,8,8,8,8,8,8,8,8,8,8,8
675643.0,high,3.0 11.0,7,7,7,7,7,7,7,7,7,7,7,7,7,7
675643.0,high,4.0 21.0,7,7,7,7,7,7,7,7,7,7,7,7,7,7
675643.0,high,7.0 11.0,8,8,8,8,8,8,8,8,8,8,8,8,8,8
675643.0,high,8.0 21.0,7,7,7,7,7,7,7,7,7,7,7,7,7,7
675643.0,low,11.0 12.0,8,8,8,8,8,8,8,8,8,8,8,8,8,8
675643.0,low,11.0 22.0,7,7,7,7,7,7,7,7,7,7,7,7,7,7
675643.0,low,3.0 12.0,7,7,7,7,7,7,7,7,7,7,7,7,7,7
675643.0,low,4.0 22.0,8,8,8,8,8,8,8,8,8,8,8,8,8,7
675643.0,low,7.0 12.0,7,7,7,7,7,7,7,7,7,7,7,7,7,7
675643.0,low,8.0 22.0,7,7,7,7,7,7,7,7,7,7,7,7,7,7
675654.0,high,11.0 12.0,7,7,7,7,7,7,7,7,7,7,7,7,7,7
675654.0,high,11.0 22.0,28,28,24,28,28,28,28,28,24,24,25,28,24,24
675654.0,high,4.0 22.0,7,7,7,7,7,7,7,7,7,7,7,7,7,7
675654.0,high,7.0 12.0,15,15,12,15,15,15,15,15,12,12,12,15,12,11
675654.0,high,8.0 22.0,7,7,7,7,7,7,7,7,7,7,7,7,7,7
675654.0,low,3.0 11.0,7,7,7,7,7,7,7,7,7,7,7,7,7,7
675654.0,low,4.0 21.0,6,6,6,6,6,6,6,6,6,6,6,6,6,6
675654.0,low,7.0 11.0,7,7,7,7,7,7,7,7,7,7,7,7,7,7
675654.0,low,8.0 21.0,11,11,8,11,11,11,11,11,8,8,8,11,8,7
675662.0,high,11.0 11.0,8,8,8,8,8,8,8,8,8,8,8,8,8,8
675662.0,high,11.0 21.0,8,8,8,8,8,8,8,8,8,8,8,8,8,8
675662.0,high,3.0 11.0,8,8,8,8,8,8,8,8,8,8,8,8,8,8
675662.0,high,4.0 21.0,8,8,8,8,8,8,8,8,8,8,8,8,8,8
675662.0,high,7.0 11.0,8,8,8,8,8,8,8,8,8,8,8,8,8,8
675662.0,high,8.0 21.0,8,8,8,8,8,8,8,8,8,8,8,8,8,8
675662.0,low,11.0 12.0,8,8,8,8,8,8,8,8,8,8,8,8,8,8
675662.0,low,11.0 22.0,7,7,7,7,7,7,7,7,7,7,7,7,7,7
675662.0,low,3.0 12.0,7,7,7,7,7,7,7,7,7,7,7,7,7,7
675662.0,low,4.0 22.0,7,7,7,7,7,7,7,7,7,7,7,7,7,7
675662.0,low,7.0 12.0,8,8,8,8,8,8,8,8,8,8,8,8,8,8
675662.0,low,8.0 22.0,7,7,7,7,7,7,7,7,7,7,7,7,7,7
675664.0,high,11.0 11.0,8,8,8,8,8,8,8,8,8,8,8,8,8,8
675664.0,high,11.0 21.0,8,8,8,8,8,8,8,8,8,8,8,8,8,8
675664.0,high,3.0 11.0,6,6,6,6,6,6,6,6,6,6,6,6,6,6
675664.0,high,4.0 21.0,8,8,8,8,8,8,8,8,8,8,8,8,8,8
675664.0,high,7.0 11.0,8,8,8,8,8,8,8,8,8,8,8,8,8,8
675664.0,high,8.0 21.0,8,8,8,8,8,8,8,8,8,8,8,8,8,8
675664.0,low,11.0 12.0,7,7,7,7,7,7,7,7,7,7,7,7,7,7
675664.0,low,11.0 22.0,7,7,7,7,7,7,7,7,7,7,7,7,7,7
675664.0,low,3.0 12.0,3,3,3,3,3,3,3,3,3,3,3,3,3,3
675664.0,low,4.0 22.0,8,8,8,8,8,8,8,8,8,8,8,8,8,8
675664.0,low,7.0 12.0,8,8,8,8,8,8,8,8,8,8,8,8,8,8
675664.0,low,8.0 22.0,8,8,8,8,8,8,8,8,8,8,8,8,8,8
675665.0,high,11.0 12.0,8,8,8,8,8,8,8,8,8,8,8,8,8,8
675665.0,high,11.0 22.0,7,7,7,7,7,7,7,7,7,7,7,7,7,7
675665.0,high,3.0 12.0,8,8,8,8,8,8,8,8,8,8,8,8,8,8
675665.0,high,4.0 22.0,8,8,8,8,8,8,8,8,8,8,8,8,8,8
675665.0,high,7.0 12.0,8,8,8,8,8,8,8,8,8,8,8,8,8,8
675665.0,high,8.0 22.0,7,7,7,7,7,7,7,7,7,7,7,7,7,7
675665.0,low,11.0 11.0,8,8,8,8,8,8,8,8,8,8,8,8,8,8
675665.0,low,11.0 21.0,8,8,8,8,8,8,8,8,8,8,8,8,8,8
675665.0,low,3.0 11.0,4,4,4,4,4,4,4,4,4,4,4,4,4,4
675665.0,low,4.0 21.0,6,6,6,6,6,6,6,6,6,6,6,6,6,6
675665.0,low,7.0 11.0,7,7,7,7,7,7,7,7,7,7,7,7,7,7
675665.0,low,8.0 21.0,8,8,8,8,8,8,8,8,8,8,8,8,8,8
675669.0,high,11.0 12.0,6,6,6,6,6,6,6,6,6,6,6,6,6,6
675669.0,high,11.0 22.0,7,7,7,7,7,7,7,7,7,7,7,7,7,7
675669.0,high,3.0 12.0,7,7,7,7,7,7,7,7,7,7,7,7,7,7
675669.0,high,4.0 22.0,1,1,1,1,1,1,1,1,1,1,1,1,1,1
675669.0,high,7.0 12.0,8,8,8,8,8,8,8,8,8,8,8,8,8,8
675669.0,high,8.0 22.0,7,7,7,7,7,7,7,7,7,7,7,7,7,7
675669.0,low,11.0 11.0,7,7,7,7,7,7,7,7,7,7,7,7,7,7
675669.0,low,11.0 21.0,7,7,7,7,7,7,7,7,7,7,7,7,7,7
675669.0,low,3.0 11.0,6,6,6,6,6,6,6,6,6,6,6,6,6,6
675669.0,low,4.0 21.0,6,6,6,6,6,6,6,6,6,6,6,6,6,6
675669.0,low,7.0 11.0,8,8,8,8,8,8,8,8,8,8,8,8,8,8
675669.0,low,8.0 21.0,1,1,1,1,1,1,1,1,1,1,1,1,1,1
675670.0,high,11.0 12.0,7,7,7,7,7,7,7,7,7,7,7,7,7,7
675670.0,high,11.0 22.0,8,8,8,8,8,8,8,8,8,8,8,8,8,8
675670.0,high,3.0 12.0,7,7,7,7,7,7,7,7,7,7,7,7,7,7
675670.0,high,4.0 22.0,7,7,7,7,7,7,7,7,7,7,7,7,7,7
675670.0,high,7.0 12.0,8,8,8,8,8,8,8,8,8,8,8,8,8,8
675670.0,high,8.0 22.0,8,8,8,8,8,8,8,8,8,8,8,8,8,8
675670.0,low,11.0 11.0,8,8,8,8,8,8,8,8,8,8,8,8,8,8
675670.0,low,11.0 21.0,8,8,8,8,8,8,8,8,8,8,8,8,8,8
675670.0,low,3.0 11.0,7,7,7,7,7,7,7,7,7,7,7,7,7,7
675670.0,low,4.0 21.0,8,8,8,8,8,8,8,8,8,8,8,8,8,8
675670.0,low,7.0 11.0,7,7,7,7,7,7,7,7,7,7,7,7,7,7
675670.0,low,8.0 21.0,8,8,8,8,8,8,8,8,8,8,8,8,8,8
675690.0,high,11.0 12.0,8,8,8,8,8,8,8,8,8,8,8,8,8,8
675690.0,high,11.0 22.0,8,8,8,8,8,8,8,8,8,8,8,8,8,8
675690.0,high,3.0 12.0,7,7,7,7,7,7,7,7,7,7,7,7,7,7
675690.0,high,4.0 22.0,6,6,6,6,6,6,6,6,6,6,6,6,6,6
675690.0,high,7.0 12.0,8,8,8,8,8,8,8,8,8,8,8,8,8,8
675690.0,high,8.0 22.0,8,8,8,8,8,8,8,8,8,8,8,8,8,8
675690.0,low,11.0 11.0,6,6,6,6,6,6,6,6,6,6,6,6,6,6
675690.0,low,11.0 21.0,7,7,7,7,7,7,7,7,7,7,7,7,7,7
675690.0,low,3.0 11.0,8,8,8,8,8,8,8,8,8,8,8,8,8,8
675690.0,low,4.0 21.0,8,8,8,8,8,8,8,8,8,8,8,8,8,8
675690.0,low,7.0 11.0,8,8,8,8,8,8,8,8,8,8,8,8,8,8
675690.0,low,8.0 21.0,6,6,6,6,6,6,6,6,6,6,6,6,6,6
675732.0,high,11.0 11.0,7,7,7,7,7,7,7,7,7,7,7,7,7,7
675732.0,high,11.0 21.0,8,8,8,8,8,8,8,8,8,8,8,8,8,8
675732.0,high,3.0 11.0,8,8,8,8,8,8,8,8,8,8,8,8,8,8
675732.0,high,4.0 21.0,7,7,7,7,7,7,7,7,7,7,7,7,7,7
675732.0,high,7.0 11.0,8,8,8,8,8,8,8,8,8,8,8,8,8,8
675732.0,high,8.0 21.0,8,8,8,8,8,8,8,8,8,8,8,8,8,8
675732.0,low,11.0 12.0,8,8,8,8,8,8,8,8,8,8,8,8,8,8
675732.0,low,11.0 22.0,8,8,8,8,8,8,8,8,8,8,8,8,8,8
675732.0,low,3.0 12.0,7,7,7,7,7,7,7,7,7,7,7,7,7,7
675732.0,low,4.0 22.0,6,6,6,6,6,6,6,6,6,6,6,6,6,6
675732.0,low,7.0 12.0,7,7,7,7,7,7,7,7,7,7,7,7,7,7
675732.0,low,8.0 22.0,7,7,7,7,7,7,7,7,7,7,7,7,7,7
676774.0,high,11.0 11.0,8,8,8,8,8,8,8,8,8,8,8,8,8,8
676774.0,high,11.0 21.0,8,8,8,8,8,8,8,8,8,8,8,8,8,8
676774.0,high,3.0 11.0,8,8,8,8,8,8,8,8,8,8,8,8,8,8
676774.0,high,4.0 21.0,8,8,8,8,8,8,8,8,8,8,8,8,8,8
676774.0,high,7.0 11.0,8,8,8,8,8,8,8,8,8,8,8,8,8,8
676774.0,high,8.0 21.0,8,8,8,8,8,8,8,8,8,8,8,8,8,8
676774.0,low,11.0 12.0,8,8,8,8,8,8,8,8,8,8,8,8,8,8
676774.0,low,11.0 22.0,8,8,8,8,8,8,8,8,8,8,8,8,8,8
676774.0,low,3.0 12.0,8,8,8,8,8,8,8,8,8,8,8,8,8,8
676774.0,low,4.0 22.0,8,8,8,8,8,8,8,8,8,8,8,8,8,8
676774.0,low,7.0 12.0,8,8,8,8,8,8,8,8,8,8,8,8,8,8
676774.0,low,8.0 22.0,8,8,8,8,8,8,8,8,8,8,8,8,8,8
680108.0,high,11.0 11.0,8,8,8,8,8,8,8,8,8,8,8,8,8,8
680108.0,high,11.0 21.0,7,7,7,7,7,7,7,7,7,7,7,7,7,7
680108.0,high,3.0 11.0,7,7,7,7,7,7,7,7,7,7,7,7,7,7
680108.0,high,4.0 21.0,8,8,8,8,8,8,8,8,8,8,8,8,8,8
680108.0,high,7.0 11.0,8,8,8,8,8,8,8,8,8,8,8,8,8,8
680108.0,high,8.0 21.0,8,8,8,8,8,8,8,8,8,8,8,8,8,8
680108.0,low,11.0 12.0,6,6,6,6,6,6,6,6,6,6,6,6,6,6
680108.0,low,11.0 22.0,8,8,8,8,8,8,8,8,8,8,8,8,8,8
680108.0,low,3.0 12.0,8,8,8,8,8,8,8,8,8,8,8,8,8,8
680108.0,low,4.0 22.0,8,8,8,8,8,8,8,8,8,8,8,8,8,8
680108.0,low,7.0 12.0,8,8,8,8,8,8,8,8,8,8,8,8,8,8
680108.0,low,8.0 22.0,8,8,8,8,8,8,8,8,8,8,8,8,8,8
680109.0,high,11.0 11.0,8,8,8,8,8,8,8,8,8,8,8,8,8,8
680109.0,high,11.0 21.0,8,8,8,8,8,8,8,8,8,8,8,8,8,8
680109.0,high,3.0 11.0,8,8,8,8,8,8,8,8,8,8,8,8,8,8
680109.0,high,4.0 21.0,8,8,8,8,8,8,8,8,8,8,8,8,8,8
680109.0,high,7.0 11.0,8,8,8,8,8,8,8,8,8,8,8,8,8,8
680109.0,high,8.0 21.0,7,7,7,7,7,7,7,7,7,7,7,7,7,7
680109.0,low,11.0 12.0,8,8,8,8,8,8,8,8,8,8,8,8,8,8
680109.0,low,11.0 22.0,6,6,6,6,6,6,6,6,6,6,6,6,6,6
680109.0,low,3.0 12.0,8,8,8,8,8,8,8,8,8,8,8,8,8,8
680109.0,low,4.0 22.0,8,8,8,8,8,8,8,8,8,8,8,8,8,8
680109.0,low,7.0 12.0,8,8,8,8,8,8,8,8,8,8,8,8,8,8
680109.0,low,8.0 22.0,8,8,8,8,8,8,8,8,8,8,8,8,8,8
680110.0,high,11.0 11.0,8,8,8,8,8,8,8,8,8,8,8,8,8,8
680110.0,high,11.0 21.0,7,7,7,7,7,7,7,7,7,7,7,7,7,7
680110.0,high,3.0 11.0,7,7,7,7,7,7,7,7,7,7,7,7,7,7
680110.0,high,4.0 21.0,7,7,7,7,7,7,7,7,7,7,7,7,7,7
680110.0,high,7.0 11.0,6,6,6,6,6,6,6,6,6,6,6,6,6,6
680110.0,high,8.0 21.0,7,7,7,7,7,7,7,7,7,7,7,7,7,7
680110.0,low,11.0 12.0,7,7,7,7,7,7,7,7,7,7,7,7,7,7
680110.0,low,11.0 22.0,7,7,7,7,7,7,7,7,7,7,7,7,7,7
680110.0,low,3.0 12.0,8,8,8,8,8,8,8,8,8,8,8,8,8,8
680110.0,low,4.0 22.0,7,7,7,7,7,7,7,7,7,7,7,7,7,7
680110.0,low,7.0 12.0,7,7,7,7,7,7,7,7,7,7,7,7,7,7
680110.0,low,8.0 22.0,7,7,7,7,7,7,7,7,7,7,7,7,7,7
680112.0,high,11.0 11.0,7,7,7,7,7,7,7,7,7,7,7,7,7,7
680112.0,high,11.0 21.0,8,8,8,8,8,8,8,8,8,8,8,8,8,8
680112.0,high,3.0 11.0,7,7,7,7,7,7,7,7,7,7,7,7,7,7
680112.0,high,4.0 21.0,8,8,8,8,8,8,8,8,8,8,8,8,8,8
680112.0,high,7.0 11.0,7,7,7,7,7,7,7,7,7,7,7,7,7,7
680112.0,high,8.0 21.0,8,8,8,8,8,8,8,8,8,8,8,8,8,8
680112.0,low,11.0 12.0,7,7,7,7,7,7,7,7,7,7,7,7,7,7
680112.0,low,11.0 22.0,8,8,8,8,8,8,8,8,8,8,8,8,8,8
680112.0,low,3.0 12.0,8,8,8,8,8,8,8,8,8,8,8,8,8,8
680112.0,low,4.0 22.0,8,8,8,8,8,8,8,8,8,8,8,8,8,8
680112.0,low,7.0 12.0,8,8,8,8,8,8,8,8,8,8,8,8,8,8
680112.0,low,8.0 22.0,8,8,8,8,8,8,8,8,8,8,8,8,8,8
680113.0,high,11.0 11.0,8,8,8,8,8,8,8,8,8,8,8,8,8,8
680113.0,high,11.0 21.0,8,8,8,8,8,8,8,8,8,8,8,8,8,8
680113.0,high,3.0 11.0,8,8,8,8,8,8,8,8,8,8,8,8,8,8
680113.0,high,4.0 21.0,8,8,8,8,8,8,8,8,8,8,8,8,8,8
680113.0,high,7.0 11.0,8,8,8,8,8,8,8,8,8,8,8,8,8,8
680113.0,high,8.0 21.0,8,8,8,8,8,8,8,8,8,8,8,8,8,8
680113.0,low,11.0 12.0,8,8,8,8,8,8,8,8,8,8,8,8,8,8
680113.0,low,11.0 22.0,7,7,7,7,7,7,7,7,7,7,7,7,7,7
680113.0,low,3.0 12.0,8,8,8,8,8,8,8,8,8,8,8,8,8,8
680113.0,low,4.0 22.0,8,8,8,8,8,8,8,8,8,8,8,8,8,8
680113.0,low,7.0 12.0,7,7,7,7,7,7,7,7,7,7,7,7,7,7
680113.0,low,8.0 22.0,7,7,7,7,7,7,7,7,7,7,7,7,7,7
680115.0,high,11.0 12.0,6,6,6,6,6,6,6,6,6,6,6,6,6,6
680115.0,high,11.0 22.0,2,2,2,2,2,2,2,2,2,2,2,2,2,2
680115.0,high,3.0 12.0,8,8,8,8,8,8,8,8,8,8,8,8,8,8
680115.0,high,4.0 22.0,8,8,8,8,8,8,8,8,8,8,8,8,8,8
680115.0,high,7.0 12.0,8,8,8,8,8,8,8,8,8,8,8,8,8,8
680115.0,high,8.0 22.0,18,18,14,18,18,18,18,18,14,14,15,18,14,14
680115.0,low,11.0 11.0,8,8,8,8,8,8,8,8,8,8,8,8,8,8
680115.0,low,11.0 21.0,8,8,8,8,8,8,8,8,8,8,8,8,8,8
680115.0,low,4.0 21.0,8,8,8,8,8,8,8,8,8,8,8,8,8,8
680115.0,low,7.0 11.0,7,7,7,7,7,7,7,7,7,7,7,7,7,7
680115.0,low,8.0 21.0,5,5,5,5,5,5,5,5,5,5,5,5,5,5
680118.0,high,11.0 12.0,7,7,7,7,7,7,7,7,7,7,7,7,7,7
680118.0,high,11.0 22.0,8,8,8,8,8,8,8,8,8,8,8,8,8,8
680118.0,high,3.0 12.0,7,7,7,7,7,7,7,7,7,7,7,7,7,7
680118.0,high,4.0 22.0,8,8,8,8,8,8,8,8,8,8,8,8,8,8
680118.0,high,7.0 12.0,7,7,7,7,7,7,7,7,7,7,7,7,7,7
680118.0,high,8.0 22.0,7,7,7,7,7,7,7,7,7,7,7,7,7,7
680118.0,low,11.0 11.0,6,6,6,6,6,6,6,6,6,6,6,6,6,6
680118.0,low,11.0 21.0,7,7,7,7,7,7,7,7,7,7,7,7,7,7
680118.0,low,3.0 11.0,7,7,7,7,7,7,7,7,7,7,7,7,7,7
680118.0,low,4.0 21.0,8,8,8,8,8,8,8,8,8,8,8,8,8,8
680118.0,low,7.0 11.0,8,8,8,8,8,8,8,8,8,8,8,8,8,8
680118.0,low,8.0 21.0,2,2,2,2,2,2,2,2,2,2,2,2,2,2
680125.0,high,11.0 12.0,8,8,8,8,8,8,8,8,8,8,8,8,8,8
680125.0,high,11.0 22.0,3,3,3,3,3,3,3,3,3,3,3,3,3,3
680125.0,high,3.0 12.0,8,8,8,8,8,8,8,8,8,8,8,8,8,8
680125.0,high,4.0 22.0,7,7,7,7,7,7,7,7,7,7,7,7,7,7
680125.0,high,7.0 12.0,8,8,8,8,8,8,8,8,8,8,8,8,8,8
680125.0,high,8.0 22.0,7,7,7,7,7,7,7,7,7,7,7,7,7,7
680125.0,low,11.0 11.0,7,7,7,7,7,7,7,7,7,7,7,7,7,7
680125.0,low,11.0 21.0,8,8,8,8,8,8,8,8,8,8,8,8,8,8
680125.0,low,3.0 11.0,8,8,8,8,8,8,8,8,8,8,8,8,8,8
680125.0,low,4.0 21.0,8,8,8,8,8,8,8,8,8,8,8,8,8,8
680125.0,low,7.0 11.0,11,11,8,11,11,11,11,11,8,8,8,11,8,7
680125.0,low,8.0 21.0,8,8,8,8,8,8,8,8,8,8,8,8,8,8
680126.0,high,11.0 12.0,8,8,8,8,8,8,8,8,8,8,8,8,8,8
680126.0,high,11.0 22.0,8,8,8,8,8,8,8,8,8,8,8,8,8,8
680126.0,high,3.0 12.0,7,7,7,7,7,7,7,7,7,7,7,7,7,7
680126.0,high,4.0 22.0,5,5,5,5,5,5,5,5,5,5,5,5,5,5
680126.0,high,7.0 12.0,8,8,8,8,8,8,8,8,8,8,8,8,8,8
680126.0,high,8.0 22.0,8,8,8,8,8,8,8,8,8,8,8,8,8,8
680126.0,low,11.0 11.0,7,7,7,7,7,7,7,7,7,7,7,7,7,7
680126.0,low,11.0 21.0,8,8,8,8,8,8,8,8,8,8,8,8,8,8
680126.0,low,3.0 11.0,8,8,8,8,8,8,8,8,8,8,8,8,8,8
680126.0,low,4.0 21.0,8,8,8,8,8,8,8,8,8,8,8,8,8,8
680126.0,low,7.0 11.0,8,8,8,8,8,8,8,8,8,8,8,8,8,8
680126.0,low,8.0 21.0,5,5,5,5,5,5,5,5,5,5,5,5,5,5
680127.0,high,11.0 12.0,8,8,8,8,8,8,8,8,8,8,8,8,8,8
680127.0,high,11.0 22.0,8,8,8,8,8,8,8,8,8,8,8,8,8,8
680127.0,high,3.0 12.0,8,8,8,8,8,8,8,8,8,8,8,8,8,8
680127.0,high,4.0 22.0,8,8,8,8,8,8,8,8,8,8,8,8,8,8
680127.0,high,7.0 12.0,8,8,8,8,8,8,8,8,8,8,8,8,8,8
680127.0,high,8.0 22.0,7,7,7,7,7,7,7,7,7,7,7,7,7,7
680127.0,low,11.0 11.0,6,6,6,6,6,6,6,6,6,6,6,6,6,6
680127.0,low,11.0 21.0,7,7,7,7,7,7,7,7,7,7,7,7,7,7
680127.0,low,3.0 11.0,4,4,4,4,4,4,4,4,4,4,4,4,4,4
680127.0,low,4.0 21.0,8,8,8,8,8,8,8,8,8,8,8,8,8,8
680127.0,low,7.0 11.0,8,8,8,8,8,8,8,8,8,8,8,8,8,8
680127.0,low,8.0 21.0,8,8,8,8,8,8,8,8,8,8,8,8,8,8
680129.0,high,11.0 12.0,8,8,8,8,8,8,8,8,8,8,8,8,8,8
680129.0,high,11.0 22.0,8,8,8,8,8,8,8,8,8,8,8,8,8,8
680129.0,high,3.0 12.0,8,8,8,8,8,8,8,8,8,8,8,8,8,8
680129.0,high,4.0 22.0,8,8,8,8,8,8,8,8,8,8,8,8,8,8
680129.0,high,7.0 12.0,8,8,8,8,8,8,8,8,8,8,8,8,8,8
680129.0,high,8.0 22.0,8,8,8,8,8,8,8,8,8,8,8,8,8,8
680129.0,low,11.0 11.0,6,6,6,6,6,6,6,6,6,6,6,6,6,6
680129.0,low,11.0 21.0,8,8,8,8,8,8,8,8,8,8,8,8,8,8
680129.0,low,3.0 11.0,8,8,8,8,8,8,8,8,8,8,8,8,8,8
680129.0,low,4.0 21.0,8,8,8,8,8,8,8,8,8,8,8,8,8,8
680129.0,low,7.0 11.0,7,7,7,7,7,7,7,7,7,7,7,7,7,7
680129.0,low,8.0 21.0,8,8,8,8,8,8,8,8,8,8,8,8,8,8
680136.0,high,11.0 12.0,8,8,8,8,8,8,8,8,8,8,8,8,8,8
680136.0,high,11.0 22.0,7,7,7,7,7,7,7,7,7,7,7,7,7,7
680136.0,high,3.0 12.0,7,7,7,7,7,7,7,7,7,7,7,7,7,7
680136.0,high,4.0 22.0,7,7,7,7,7,7,7,7,7,7,7,7,7,7
680136.0,high,7.0 12.0,7,7,7,7,7,7,7,7,7,7,7,7,7,7
680136.0,high,8.0 22.0,7,7,7,7,7,7,7,7,7,7,7,7,7,7
680136.0,low,11.0 11.0,6,6,6,6,6,6,6,6,6,6,6,6,6,6
680136.0,low,11.0 21.0,7,7,7,7,7,7,7,7,7,7,7,7,7,7
680136.0,low,3.0 11.0,7,7,7,7,7,7,7,7,7,7,7,7,7,7
680136.0,low,4.0 21.0,7,7,7,7,7,7,7,7,7,7,7,7,7,7
680136.0,low,7.0 11.0,7,7,7,7,7,7,7,7,7,7,7,7,7,7
680136.0,low,8.0 21.0,6,6,6,6,6,6,6,6,6,6,6,6,6,6
680155.0,high,11.0 12.0,8,8,8,8,8,8,8,8,8,8,8,8,8,8
680155.0,high,11.0 22.0,8,8,8,8,8,8,8,8,8,8,8,8,8,8
680155.0,high,4.0 22.0,8,8,8,8,8,8,8,8,8,8,8,8,8,8
680155.0,high,7.0 12.0,8,8,8,8,8,8,8,8,8,8,8,8,8,8
680155.0,high,8.0 22.0,8,8,8,8,8,8,8,8,8,8,8,8,8,8
680155.0,low,11.0 11.0,8,8,8,8,8,8,8,8,8,8,8,8,8,8
680155.0,low,11.0 21.0,7,7,7,7,7,7,7,7,7,7,7,7,7,7
680155.0,low,3.0 11.0,8,8,8,8,8,8,8,8,8,8,8,8,8,8
680155.0,low,4.0 21.0,8,8,8,8,8,8,8,8,8,8,8,8,8,8
680155.0,low,7.0 11.0,8,8,8,8,8,8,8,8,8,8,8,8,8,8
680155.0,low,8.0 21.0,8,8,8,8,8,8,8,8,8,8,8,8,8,8
680156.0,high,11.0 11.0,8,8,8,8,8,8,8,8,8,8,8,8,8,8
680156.0,high,11.0 21.0,8,8,8,8,8,8,8,8,8,8,8,8,8,8
680156.0,high,3.0 11.0,8,8,8,8,8,8,8,8,8,8,8,8,8,8
680156.0,high,4.0 21.0,8,8,8,8,8,8,8,8,8,8,8,8,8,8
680156.0,high,7.0 11.0,7,7,7,7,7,7,7,7,7,7,7,7,7,7
680156.0,high,8.0 21.0,7,7,7,7,7,7,7,7,7,7,7,7,7,7
680156.0,low,11.0 12.0,8,8,8,8,8,8,8,8,8,8,8,8,8,8
680156.0,low,11.0 22.0,8,8,8,8,8,8,8,8,8,8,8,8,8,8
680156.0,low,3.0 12.0,8,8,8,8,8,8,8,8,8,8,8,8,8,8
680156.0,low,4.0 22.0,8,8,8,8,8,8,8,8,8,8,8,8,8,8
680156.0,low,7.0 12.0,8,8,8,8,8,8,8,8,8,8,8,8,8,8
680156.0,low,8.0 22.0,8,8,8,8,8,8,8,8,8,8,8,8,8,8
680167.0,high,11.0 11.0,7,7,7,7,7,7,7,7,7,7,7,7,7,7
680167.0,high,11.0 21.0,7,7,7,7,7,7,7,7,7,7,7,7,7,7
680167.0,high,3.0 11.0,7,7,7,7,7,7,7,7,7,7,7,7,7,7
680167.0,high,4.0 21.0,5,5,5,5,5,5,5,5,5,5,5,5,5,5
680167.0,high,7.0 11.0,7,7,7,7,7,7,7,7,7,7,7,7,7,7
680167.0,high,8.0 21.0,7,7,7,7,7,7,7,7,7,7,7,7,7,7
680167.0,low,11.0 12.0,7,7,7,7,7,7,7,7,7,7,7,7,7,7
680167.0,low,11.0 22.0,7,7,7,7,7,7,7,7,7,7,7,7,7,7
680167.0,low,3.0 12.0,7,7,7,7,7,7,7,7,7,7,7,7,7,7
680167.0,low,4.0 22.0,7,7,7,7,7,7,7,7,7,7,7,7,7,7
680167.0,low,7.0 12.0,6,6,6,6,6,6,6,6,6,6,6,6,6,6
680167.0,low,8.0 22.0,7,7,7,7,7,7,7,7,7,7,7,7,7,7
680168.0,high,11.0 11.0,8,8,8,8,8,8,8,8,8,8,8,8,8,8
680168.0,high,11.0 21.0,8,8,8,8,8,8,8,8,8,8,8,8,8,8
680168.0,high,3.0 11.0,8,8,8,8,8,8,8,8,8,8,8,8,8,8
680168.0,high,4.0 21.0,8,8,8,8,8,8,8,8,8,8,8,8,8,8
680168.0,high,7.0 11.0,8,8,8,8,8,8,8,8,8,8,8,8,8,8
680168.0,high,8.0 21.0,8,8,8,8,8,8,8,8,8,8,8,8,8,8
680168.0,low,11.0 12.0,8,8,8,8,8,8,8,8,8,8,8,8,8,8
680168.0,low,11.0 22.0,8,8,8,8,8,8,8,8,8,8,8,8,8,7
680168.0,low,3.0 12.0,8,8,8,8,8,8,8,8,8,8,8,8,8,8
680168.0,low,4.0 22.0,8,8,8,8,8,8,8,8,8,8,8,8,8,8
680168.0,low,7.0 12.0,8,8,8,8,8,8,8,8,8,8,8,8,8,8
680168.0,low,8.0 22.0,8,8,8,8,8,8,8,8,8,8,8,8,8,8
680171.0,high,11.0 12.0,12,12,9,12,12,12,12,12,9,9,9,12,9,8
680171.0,high,11.0 22.0,6,6,6,6,6,6,6,6,6,6,6,6,6,6
680171.0,high,3.0 12.0,7,7,7,7,7,7,7,7,7,7,7,7,7,7
680171.0,high,4.0 22.0,7,7,7,7,7,7,7,7,7,7,7,7,7,7
680171.0,high,7.0 12.0,7,7,7,7,7,7,7,7,7,7,7,7,7,7
680171.0,high,8.0 22.0,6,6,6,6,6,6,6,6,6,6,6,6,6,6
680171.0,low,11.0 11.0,7,7,7,7,7,7,7,7,7,7,7,7,7,7
680171.0,low,11.0 21.0,4,4,4,4,4,4,4,4,4,4,4,4,4,4
680171.0,low,3.0 11.0,7,7,7,7,7,7,7,7,7,7,7,7,7,7
680171.0,low,4.0 21.0,7,7,7,7,7,7,7,7,7,7,7,7,7,7
680171.0,low,7.0 11.0,7,7,7,7,7,7,7,7,7,7,7,7,7,7
680171.0,low,8.0 21.0,4,4,4,4,4,4,4,4,4,4,4,4,4,4
680257.0,high,11.0 11.0,8,8,8,8,8,8,8,8,8,8,8,8,8,8
680257.0,high,11.0 21.0,7,7,7,7,7,7,7,7,7,7,7,7,7,7
680257.0,high,3.0 11.0,7,7,7,7,7,7,7,7,7,7,7,7,7,7
680257.0,high,4.0 21.0,7,7,7,7,7,7,7,7,7,7,7,7,7,7
680257.0,high,7.0 11.0,8,8,8,8,8,8,8,8,8,8,8,8,8,8
680257.0,high,8.0 21.0,8,8,8,8,8,8,8,8,8,8,8,8,8,8
680257.0,low,11.0 12.0,7,7,7,7,7,7,7,7,7,7,7,7,7,7
680257.0,low,11.0 22.0,8,8,8,8,8,8,8,8,8,8,8,8,8,7
680257.0,low,3.0 12.0,7,7,7,7,7,7,7,7,7,7,7,7,7,7
680257.0,low,4.0 22.0,7,7,7,7,7,7,7,7,7,7,7,7,7,7
680257.0,low,7.0 12.0,7,7,7,7,7,7,7,7,7,7,7,7,7,7
680257.0,low,8.0 22.0,7,7,7,7,7,7,7,7,7,7,7,7,7,7
681086.0,high,11.0 11.0,8,8,8,8,8,8,8,8,8,8,8,8,8,8
681086.0,high,11.0 21.0,7,7,7,7,7,7,7,7,7,7,7,7,7,7
681086.0,high,3.0 11.0,7,7,7,7,7,7,7,7,7,7,7,7,7,7
681086.0,high,4.0 21.0,7,7,7,7,7,7,7,7,7,7,7,7,7,7
681086.0,high,7.0 11.0,7,7,7,7,7,7,7,7,7,7,7,7,7,7
681086.0,high,8.0 21.0,7,7,7,7,7,7,7,7,7,7,7,7,7,7
681086.0,low,11.0 12.0,7,7,7,7,7,7,7,7,7,7,7,7,7,7
681086.0,low,11.0 22.0,7,7,7,7,7,7,7,7,7,7,7,7,7,7
681086.0,low,3.0 12.0,7,7,7,7,7,7,7,7,7,7,7,7,7,7
681086.0,low,4.0 22.0,8,8,8,8,8,8,8,8,8,8,8,8,8,7
681086.0,low,7.0 12.0,8,8,8,8,8,8,8,8,8,8,8,8,8,8
681086.0,low,8.0 22.0,7,7,7,7,7,7,7,7,7,7,7,7,7,7
683238.0,high,11.0 12.0,8,8,8,8,8,8,8,8,8,8,8,8,8,8
683238.0,high,11.0 22.0,8,8,8,8,8,8,8,8,8,8,8,8,8,8
683238.0,high,3.0 12.0,8,8,8,8,8,8,8,8,8,8,8,8,8,8
683238.0,high,4.0 22.0,8,8,8,8,8,8,8,8,8,8,8,8,8,8
683238.0,high,7.0 12.0,8,8,8,8,8,8,8,8,8,8,8,8,8,8
683238.0,high,8.0 22.0,8,8,8,8,8,8,8,8,8,8,8,8,8,8
683238.0,low,11.0 11.0,7,7,7,7,7,7,7,7,7,7,7,7,7,7
683238.0,low,11.0 21.0,7,7,7,7,7,7,7,7,7,7,7,7,7,7
683238.0,low,3.0 11.0,8,8,8,8,8,8,8,8,8,8,8,8,8,8
683238.0,low,4.0 21.0,7,7,7,7,7,7,7,7,7,7,7,7,7,7
683238.0,low,7.0 11.0,8,8,8,8,8,8,8,8,8,8,8,8,8,8
683238.0,low,8.0 21.0,8,8,8,8,8,8,8,8,8,8,8,8,8,8
683239.0,high,11.0 12.0,8,8,8,8,8,8,8,8,8,8,8,8,8,8
683239.0,high,11.0 22.0,8,8,8,8,8,8,8,8,8,8,8,8,8,8
683239.0,high,3.0 12.0,8,8,8,8,8,8,8,8,8,8,8,8,8,8
683239.0,high,4.0 22.0,8,8,8,8,8,8,8,8,8,8,8,8,8,8
683239.0,high,7.0 12.0,8,8,8,8,8,8,8,8,8,8,8,8,8,8
683239.0,high,8.0 22.0,8,8,8,8,8,8,8,8,8,8,8,8,8,8
683239.0,low,11.0 11.0,8,8,8,8,8,8,8,8,8,8,8,8,8,8
683239.0,low,11.0 21.0,8,8,8,8,8,8,8,8,8,8,8,8,8,8
683239.0,low,3.0 11.0,8,8,8,8,8,8,8,8,8,8,8,8,8,8
683239.0,low,4.0 21.0,8,8,8,8,8,8,8,8,8,8,8,8,8,8
683239.0,low,7.0 11.0,8,8,8,8,8,8,8,8,8,8,8,8,8,8
683239.0,low,8.0 21.0,8,8,8,8,8,8,8,8,8,8,8,8,8,8
683240.0,high,11.0 12.0,8,8,8,8,8,8,8,8,8,8,8,8,8,8
683240.0,high,11.0 22.0,8,8,8,8,8,8,8,8,8,8,8,8,8,8
683240.0,high,3.0 12.0,8,8,8,8,8,8,8,8,8,8,8,8,8,8
683240.0,high,4.0 22.0,8,8,8,8,8,8,8,8,8,8,8,8,8,8
683240.0,high,7.0 12.0,8,8,8,8,8,8,8,8,8,8,8,8,8,8
683240.0,high,8.0 22.0,8,8,8,8,8,8,8,8,8,8,8,8,8,8
683240.0,low,11.0 11.0,8,8,8,8,8,8,8,8,8,8,8,8,8,8
683240.0,low,11.0 21.0,8,8,8,8,8,8,8,8,8,8,8,8,8,8
683240.0,low,3.0 11.0,8,8,8,8,8,8,8,8,8,8,8,8,8,8
683240.0,low,4.0 21.0,8,8,8,8,8,8,8,8,8,8,8,8,8,8
683240.0,low,7.0 11.0,8,8,8,8,8,8,8,8,8,8,8,8,8,8
683240.0,low,8.0 21.0,8,8,8,8,8,8,8,8,8,8,8,8,8,8
683241.0,high,11.0 11.0,4,4,4,4,4,4,4,4,4,4,4,4,4,4
683241.0,high,11.0 21.0,8,8,8,8,8,8,8,8,8,8,8,8,8,8
683241.0,high,3.0 11.0,8,8,8,8,8,8,8,8,8,8,8,8,8,8
683241.0,high,4.0 21.0,8,8,8,8,8,8,8,8,8,8,8,8,8,8
683241.0,high,7.0 11.0,8,8,8,8,8,8,8,8,8,8,8,8,8,8
683241.0,high,8.0 21.0,8,8,8,8,8,8,8,8,8,8,8,8,8,8
683241.0,low,11.0 12.0,8,8,8,8,8,8,8,8,8,8,8,8,8,8
683241.0,low,11.0 22.0,4,4,4,4,4,4,4,4,4,4,4,4,4,4
683241.0,low,3.0 12.0,8,8,8,8,8,8,8,8,8,8,8,8,8,8
683241.0,low,4.0 22.0,8,8,8,8,8,8,8,8,8,8,8,8,8,7
683241.0,low,7.0 12.0,7,7,7,7,7,7,7,7,7,7,7,7,7,7
683241.0,low,8.0 22.0,8,8,8,8,8,8,8,8,8,8,8,8,8,7
683242.0,high,11.0 12.0,8,8,8,8,8,8,8,8,8,8,8,8,8,8
683242.0,high,11.0 22.0,8,8,8,8,8,8,8,8,8,8,8,8,8,8
683242.0,high,3.0 12.0,8,8,8,8,8,8,8,8,8,8,8,8,8,8
683242.0,high,4.0 22.0,8,8,8,8,8,8,8,8,8,8,8,8,8,8
683242.0,high,7.0 12.0,8,8,8,8,8,8,8,8,8,8,8,8,8,8
683242.0,high,8.0 22.0,8,8,8,8,8,8,8,8,8,8,8,8,8,8
683242.0,low,11.0 11.0,8,8,8,8,8,8,8,8,8,8,8,8,8,8
683242.0,low,11.0 21.0,8,8,8,8,8,8,8,8,8,8,8,8,8,8
683242.0,low,3.0 11.0,8,8,8,8,8,8,8,8,8,8,8,8,8,8
683242.0,low,4.0 21.0,8,8,8,8,8,8,8,8,8,8,8,8,8,8
683242.0,low,7.0 11.0,8,8,8,8,8,8,8,8,8,8,8,8,8,8
683242.0,low,8.0 21.0,8,8,8,8,8,8,8,8,8,8,8,8,8,8
683243.0,high,11.0 11.0,8,8,8,8,8,8,8,8,8,8,8,8,8,8
683243.0,high,11.0 21.0,8,8,8,8,8,8,8,8,8,8,8,8,8,8
683243.0,high,3.0 11.0,8,8,8,8,8,8,8,8,8,8,8,8,8,8
683243.0,high,4.0 21.0,8,8,8,8,8,8,8,8,8,8,8,8,8,8
683243.0,high,7.0 11.0,8,8,8,8,8,8,8,8,8,8,8,8,8,8
683243.0,high,8.0 21.0,8,8,8,8,8,8,8,8,8,8,8,8,8,8
683243.0,low,11.0 12.0,8,8,8,8,8,8,8,8,8,8,8,8,8,8
683243.0,low,11.0 22.0,8,8,8,8,8,8,8,8,8,8,8,8,8,8
683243.0,low,3.0 12.0,8,8,8,8,8,8,8,8,8,8,8,8,8,8
683243.0,low,4.0 22.0,8,8,8,8,8,8,8,8,8,8,8,8,8,8
683243.0,low,7.0 12.0,8,8,8,8,8,8,8,8,8,8,8,8,8,8
683243.0,low,8.0 22.0,8,8,8,8,8,8,8,8,8,8,8,8,8,8
683244.0,high,11.0 11.0,7,7,7,7,7,7,7,7,7,7,7,7,7,7
683244.0,high,11.0 21.0,8,8,8,8,8,8,8,8,8,8,8,8,8,8
683244.0,high,3.0 11.0,8,8,8,8,8,8,8,8,8,8,8,8,8,8
683244.0,high,4.0 21.0,7,7,7,7,7,7,7,7,7,7,7,7,7,7
683244.0,high,7.0 11.0,7,7,7,7,7,7,7,7,7,7,7,7,7,7
683244.0,high,8.0 21.0,7,7,7,7,7,7,7,7,7,7,7,7,7,7
683244.0,low,11.0 12.0,8,8,8,8,8,8,8,8,8,8,8,8,8,8
683244.0,low,11.0 22.0,7,7,7,7,7,7,7,7,7,7,7,7,7,7
683244.0,low,3.0 12.0,1,1,1,1,1,1,1,1,1,1,1,1,1,1
683244.0,low,4.0 22.0,8,8,8,8,8,8,8,8,8,8,8,8,8,7
683244.0,low,7.0 12.0,7,7,7,7,7,7,7,7,7,7,7,7,7,7
683244.0,low,8.0 22.0,7,7,7,7,7,7,7,7,7,7,7,7,7,7
683245.0,high,11.0 12.0,7,7,7,7,7,7,7,7,7,7,7,7,7,7
683245.0,high,11.0 22.0,6,6,6,6,6,6,6,6,6,6,6,6,6,6
683245.0,high,3.0 12.0,7,7,7,7,7,7,7,7,7,7,7,7,7,7
683245.0,high,4.0 22.0,7,7,7,7,7,7,7,7,7,7,7,7,7,7
683245.0,high,7.0 12.0,7,7,7,7,7,7,7,7,7,7,7,7,7,7
683245.0,high,8.0 22.0,7,7,7,7,7,7,7,7,7,7,7,7,7,7
683245.0,low,11.0 11.0,6,6,6,6,6,6,6,6,6,6,6,6,6,6
683245.0,low,11.0 21.0,7,7,7,7,7,7,7,7,7,7,7,7,7,7
683245.0,low,3.0 11.0,7,7,7,7,7,7,7,7,7,7,7,7,7,7
683245.0,low,4.0 21.0,7,7,7,7,7,7,7,7,7,7,7,7,7,7
683245.0,low,7.0 11.0,7,7,7,7,7,7,7,7,7,7,7,7,7,7
683245.0,low,8.0 21.0,6,6,6,6,6,6,6,6,6,6,6,6,6,6
683246.0,high,11.0 12.0,8,8,8,8,8,8,8,8,8,8,8,8,8,8
683246.0,high,11.0 22.0,8,8,8,8,8,8,8,8,8,8,8,8,8,8
683246.0,high,3.0 12.0,8,8,8,8,8,8,8,8,8,8,8,8,8,8
683246.0,high,4.0 22.0,8,8,8,8,8,8,8,8,8,8,8,8,8,8
683246.0,high,7.0 12.0,8,8,8,8,8,8,8,8,8,8,8,8,8,8
683246.0,high,8.0 22.0,8,8,8,8,8,8,8,8,8,8,8,8,8,8
683246.0,low,11.0 11.0,2,2,2,2,2,2,2,2,2,2,2,2,2,2
683246.0,low,11.0 21.0,8,8,8,8,8,8,8,8,8,8,8,8,8,8
683246.0,low,3.0 11.0,8,8,8,8,8,8,8,8,8,8,8,8,8,8
683246.0,low,4.0 21.0,8,8,8,8,8,8,8,8,8,8,8,8,8,8
683246.0,low,7.0 11.0,8,8,8,8,8,8,8,8,8,8,8,8,8,8
683246.0,low,8.0 21.0,8,8,8,8,8,8,8,8,8,8,8,8,8,8
683250.0,high,11.0 11.0,8,8,8,8,8,8,8,8,8,8,8,8,8,8
683250.0,high,11.0 21.0,8,8,8,8,8,8,8,8,8,8,8,8,8,8
683250.0,high,3.0 11.0,8,8,8,8,8,8,8,8,8,8,8,8,8,8
683250.0,high,4.0 21.0,8,8,8,8,8,8,8,8,8,8,8,8,8,8
683250.0,high,7.0 11.0,8,8,8,8,8,8,8,8,8,8,8,8,8,8
683250.0,high,8.0 21.0,8,8,8,8,8,8,8,8,8,8,8,8,8,8
683250.0,low,11.0 12.0,8,8,8,8,8,8,8,8,8,8,8,8,8,8
683250.0,low,11.0 22.0,7,7,7,7,7,7,7,7,7,7,7,7,7,7
683250.0,low,3.0 12.0,8,8,8,8,8,8,8,8,8,8,8,8,8,8
683250.0,low,4.0 22.0,8,8,8,8,8,8,8,8,8,8,8,8,8,7
683250.0,low,7.0 12.0,8,8,8,8,8,8,8,8,8,8,8,8,8,8
683250.0,low,8.0 22.0,8,8,8,8,8,8,8,8,8,8,8,8,8,7
683251.0,high,11.0 11.0,8,8,8,8,8,8,8,8,8,8,8,8,8,8
683251.0,high,11.0 21.0,8,8,8,8,8,8,8,8,8,8,8,8,8,8
683251.0,high,3.0 11.0,8,8,8,8,8,8,8,8,8,8,8,8,8,8
683251.0,high,4.0 21.0,8,8,8,8,8,8,8,8,8,8,8,8,8,8
683251.0,high,7.0 11.0,8,8,8,8,8,8,8,8,8,8,8,8,8,8
683251.0,high,8.0 21.0,8,8,8,8,8,8,8,8,8,8,8,8,8,8
683251.0,low,11.0 12.0,8,8,8,8,8,8,8,8,8,8,8,8,8,8
683251.0,low,11.0 22.0,8,8,8,8,8,8,8,8,8,8,8,8,8,8
683251.0,low,3.0 12.0,8,8,8,8,8,8,8,8,8,8,8,8,8,8
683251.0,low,4.0 22.0,8,8,8,8,8,8,8,8,8,8,8,8,8,8
683251.0,low,7.0 12.0,8,8,8,8,8,8,8,8,8,8,8,8,8,8
683251.0,low,8.0 22.0,8,8,8,8,8,8,8,8,8,8,8,8,8,8
683252.0,high,11.0 12.0,8,8,8,8,8,8,8,8,8,8,8,8,8,8
683252.0,high,11.0 22.0,8,8,8,8,8,8,8,8,8,8,8,8,8,8
683252.0,high,3.0 12.0,7,7,7,7,7,7,7,7,7,7,7,7,7,7
683252.0,high,4.0 22.0,8,8,8,8,8,8,8,8,8,8,8,8,8,8
683252.0,high,7.0 12.0,8,8,8,8,8,8,8,8,8,8,8,8,8,8
683252.0,high,8.0 22.0,8,8,8,8,8,8,8,8,8,8,8,8,8,8
683252.0,low,11.0 11.0,8,8,8,8,8,8,8,8,8,8,8,8,8,8
683252.0,low,11.0 21.0,8,8,8,8,8,8,8,8,8,8,8,8,8,8
683252.0,low,3.0 11.0,8,8,8,8,8,8,8,8,8,8,8,8,8,8
683252.0,low,4.0 21.0,8,8,8,8,8,8,8,8,8,8,8,8,8,8
683252.0,low,7.0 11.0,7,7,7,7,7,7,7,7,7,7,7,7,7,7
683252.0,low,8.0 21.0,8,8,8,8,8,8,8,8,8,8,8,8,8,8
683257.0,high,11.0 12.0,8,8,8,8,8,8,8,8,8,8,8,8,8,8
683257.0,high,11.0 22.0,8,8,8,8,8,8,8,8,8,8,8,8,8,8
683257.0,high,3.0 12.0,8,8,8,8,8,8,8,8,8,8,8,8,8,8
683257.0,high,4.0 22.0,8,8,8,8,8,8,8,8,8,8,8,8,8,8
683257.0,high,7.0 12.0,8,8,8,8,8,8,8,8,8,8,8,8,8,8
683257.0,high,8.0 22.0,8,8,8,8,8,8,8,8,8,8,8,8,8,8
683257.0,low,11.0 11.0,8,8,8,8,8,8,8,8,8,8,8,8,8,8
683257.0,low,11.0 21.0,8,8,8,8,8,8,8,8,8,8,8,8,8,8
683257.0,low,3.0 11.0,8,8,8,8,8,8,8,8,8,8,8,8,8,8
683257.0,low,4.0 21.0,8,8,8,8,8,8,8,8,8,8,8,8,8,8
683257.0,low,7.0 11.0,8,8,8,8,8,8,8,8,8,8,8,8,8,8
683257.0,low,8.0 21.0,8,8,8,8,8,8,8,8,8,8,8,8,8,8
683259.0,high,11.0 12.0,7,7,7,7,7,7,7,7,7,7,7,7,7,7
683259.0,high,11.0 22.0,8,8,8,8,8,8,8,8,8,8,8,8,8,8
683259.0,high,3.0 12.0,7,7,7,7,7,7,7,7,7,7,7,7,7,7
683259.0,high,4.0 22.0,7,7,7,7,7,7,7,7,7,7,7,7,7,7
683259.0,high,7.0 12.0,7,7,7,7,7,7,7,7,7,7,7,7,7,7
683259.0,high,8.0 22.0,7,7,7,7,7,7,7,7,7,7,7,7,7,7
683259.0,low,11.0 11.0,7,7,7,7,7,7,7,7,7,7,7,7,7,7
683259.0,low,11.0 21.0,7,7,7,7,7,7,7,7,7,7,7,7,7,7
683259.0,low,3.0 11.0,8,8,8,8,8,8,8,8,8,8,8,8,8,8
683259.0,low,4.0 21.0,7,7,7,7,7,7,7,7,7,7,7,7,7,7
683259.0,low,7.0 11.0,7,7,7,7,7,7,7,7,7,7,7,7,7,7
683259.0,low,8.0 21.0,8,8,8,8,8,8,8,8,8,8,8,8,8,8
683264.0,high,11.0 11.0,8,8,8,8,8,8,8,8,8,8,8,8,8,8
683264.0,high,11.0 21.0,8,8,8,8,8,8,8,8,8,8,8,8,8,8
683264.0,high,3.0 11.0,8,8,8,8,8,8,8,8,8,8,8,8,8,8
683264.0,high,4.0 21.0,7,7,7,7,7,7,7,7,7,7,7,7,7,7
683264.0,high,7.0 11.0,8,8,8,8,8,8,8,8,8,8,8,8,8,8
683264.0,high,8.0 21.0,8,8,8,8,8,8,8,8,8,8,8,8,8,8
683264.0,low,11.0 12.0,8,8,8,8,8,8,8,8,8,8,8,8,8,8
683264.0,low,11.0 22.0,8,8,8,8,8,8,8,8,8,8,8,8,8,8
683264.0,low,3.0 12.0,8,8,8,8,8,8,8,8,8,8,8,8,8,8
683264.0,low,4.0 22.0,8,8,8,8,8,8,8,8,8,8,8,8,8,8
683264.0,low,7.0 12.0,8,8,8,8,8,8,8,8,8,8,8,8,8,8
683264.0,low,8.0 22.0,8,8,8,8,8,8,8,8,8,8,8,8,8,8
683265.0,high,11.0 11.0,7,7,7,7,7,7,7,7,7,7,7,7,7,7
683265.0,high,11.0 21.0,8,8,8,8,8,8,8,8,8,8,8,8,8,8
683265.0,high,3.0 11.0,7,7,7,7,7,7,7,7,7,7,7,7,7,7
683265.0,high,4.0 21.0,7,7,7,7,7,7,7,7,7,7,7,7,7,7
683265.0,high,7.0 11.0,6,6,6,6,6,6,6,6,6,6,6,6,6,6
683265.0,high,8.0 21.0,6,6,6,6,6,6,6,6,6,6,6,6,6,6
683265.0,low,11.0 12.0,6,6,6,6,6,6,6,6,6,6,6,6,6,6
683265.0,low,11.0 22.0,6,6,6,6,6,6,6,6,6,6,6,6,6,6
683265.0,low,3.0 12.0,6,6,6,6,6,6,6,6,6,6,6,6,6,6
683265.0,low,4.0 22.0,7,7,7,7,7,7,7,7,7,7,7,7,7,7
683265.0,low,7.0 12.0,4,4,4,4,4,4,4,4,4,4,4,4,4,4
683265.0,low,8.0 22.0,6,6,6,6,6,6,6,6,6,6,6,6,6,6
683284.0,high,11.0 12.0,7,7,7,7,7,7,7,7,7,7,7,7,7,7
683284.0,high,11.0 22.0,8,8,8,8,8,8,8,8,8,8,8,8,8,8
683284.0,high,3.0 12.0,7,7,7,7,7,7,7,7,7,7,7,7,7,7
683284.0,high,4.0 22.0,8,8,8,8,8,8,8,8,8,8,8,8,8,8
683284.0,high,7.0 12.0,7,7,7,7,7,7,7,7,7,7,7,7,7,7
683284.0,high,8.0 22.0,8,8,8,8,8,8,8,8,8,8,8,8,8,8
683284.0,low,11.0 11.0,7,7,7,7,7,7,7,7,7,7,7,7,7,7
683284.0,low,11.0 21.0,6,6,6,6,6,6,6,6,6,6,6,6,6,6
683284.0,low,3.0 11.0,6,6,6,6,6,6,6,6,6,6,6,6,6,6
683284.0,low,4.0 21.0,7,7,7,7,7,7,7,7,7,7,7,7,7,7
683284.0,low,7.0 11.0,7,7,7,7,7,7,7,7,7,7,7,7,7,7
683284.0,low,8.0 21.0,8,8,8,8,8,8,8,8,8,8,8,8,8,8
683302.0,high,11.0 11.0,8,8,8,8,8,8,8,8,8,8,8,8,8,8
683302.0,high,11.0 21.0,8,8,8,8,8,8,8,8,8,8,8,8,8,8
683302.0,high,3.0 11.0,8,8,8,8,8,8,8,8,8,8,8,8,8,8
683302.0,high,4.0 21.0,8,8,8,8,8,8,8,8,8,8,8,8,8,8
683302.0,high,7.0 11.0,8,8,8,8,8,8,8,8,8,8,8,8,8,8
683302.0,high,8.0 21.0,8,8,8,8,8,8,8,8,8,8,8,8,8,8
683302.0,low,11.0 12.0,8,8,8,8,8,8,8,8,8,8,8,8,8,8
683302.0,low,11.0 22.0,8,8,8,8,8,8,8,8,8,8,8,8,8,8
683302.0,low,3.0 12.0,8,8,8,8,8,8,8,8,8,8,8,8,8,8
683302.0,low,4.0 22.0,8,8,8,8,8,8,8,8,8,8,8,8,8,8
683302.0,low,7.0 12.0,8,8,8,8,8,8,8,8,8,8,8,8,8,8
683302.0,low,8.0 22.0,8,8,8,8,8,8,8,8,8,8,8,8,8,8
683305.0,high,11.0 12.0,8,8,8,8,8,8,8,8,8,8,8,8,8,8
683305.0,high,11.0 22.0,8,8,8,8,8,8,8,8,8,8,8,8,8,8
683305.0,high,3.0 12.0,7,7,7,7,7,7,7,7,7,7,7,7,7,7
683305.0,high,4.0 22.0,8,8,8,8,8,8,8,8,8,8,8,8,8,8
683305.0,high,7.0 12.0,8,8,8,8,8,8,8,8,8,8,8,8,8,8
683305.0,high,8.0 22.0,8,8,8,8,8,8,8,8,8,8,8,8,8,8
683305.0,low,11.0 11.0,8,8,8,8,8,8,8,8,8,8,8,8,8,8
683305.0,low,11.0 21.0,8,8,8,8,8,8,8,8,8,8,8,8,8,8
683305.0,low,3.0 11.0,8,8,8,8,8,8,8,8,8,8,8,8,8,8
683305.0,low,4.0 21.0,8,8,8,8,8,8,8,8,8,8,8,8,8,8
683305.0,low,7.0 11.0,8,8,8,8,8,8,8,8,8,8,8,8,8,8
683305.0,low,8.0 21.0,8,8,8,8,8,8,8,8,8,8,8,8,8,8
683308.0,high,11.0 11.0,8,8,8,8,8,8,8,8,8,8,8,8,8,8
683308.0,high,11.0 21.0,8,8,8,8,8,8,8,8,8,8,8,8,8,8
683308.0,high,3.0 11.0,8,8,8,8,8,8,8,8,8,8,8,8,8,8
683308.0,high,4.0 21.0,8,8,8,8,8,8,8,8,8,8,8,8,8,8
683308.0,high,7.0 11.0,8,8,8,8,8,8,8,8,8,8,8,8,8,8
683308.0,high,8.0 21.0,8,8,8,8,8,8,8,8,8,8,8,8,8,8
683308.0,low,11.0 12.0,8,8,8,8,8,8,8,8,8,8,8,8,8,8
683308.0,low,11.0 22.0,8,8,8,8,8,8,8,8,8,8,8,8,8,8
683308.0,low,3.0 12.0,8,8,8,8,8,8,8,8,8,8,8,8,8,8
683308.0,low,4.0 22.0,8,8,8,8,8,8,8,8,8,8,8,8,8,8
683308.0,low,7.0 12.0,8,8,8,8,8,8,8,8,8,8,8,8,8,8
683308.0,low,8.0 22.0,8,8,8,8,8,8,8,8,8,8,8,8,8,8
683358.0,high,11.0 12.0,7,7,7,7,7,7,7,7,7,7,7,7,7,7
683358.0,high,11.0 22.0,8,8,8,8,8,8,8,8,8,8,8,8,8,8
683358.0,high,3.0 12.0,8,8,8,8,8,8,8,8,8,8,8,8,8,8
683358.0,high,4.0 22.0,8,8,8,8,8,8,8,8,8,8,8,8,8,8
683358.0,high,7.0 12.0,7,7,7,7,7,7,7,7,7,7,7,7,7,7
683358.0,high,8.0 22.0,8,8,8,8,8,8,8,8,8,8,8,8,8,8
683358.0,low,11.0 11.0,8,8,8,8,8,8,8,8,8,8,8,8,8,8
683358.0,low,11.0 21.0,7,7,7,7,7,7,7,7,7,7,7,7,7,7
683358.0,low,3.0 11.0,8,8,8,8,8,8,8,8,8,8,8,8,8,8
683358.0,low,4.0 21.0,8,8,8,8,8,8,8,8,8,8,8,8,8,8
683358.0,low,7.0 11.0,7,7,7,7,7,7,7,7,7,7,7,7,7,7
683358.0,low,8.0 21.0,7,7,7,7,7,7,7,7,7,7,7,7,7,7
684252.0,high,11.0 11.0,7,7,7,7,7,7,7,7,7,7,7,7,7,7
684252.0,high,11.0 21.0,8,8,8,8,8,8,8,8,8,8,8,8,8,8
684252.0,high,3.0 11.0,7,7,7,7,7,7,7,7,7,7,7,7,7,7
684252.0,high,4.0 21.0,8,8,8,8,8,8,8,8,8,8,8,8,8,8
684252.0,high,7.0 11.0,8,8,8,8,8,8,8,8,8,8,8,8,8,8
684252.0,high,8.0 21.0,8,8,8,8,8,8,8,8,8,8,8,8,8,8
684252.0,low,11.0 12.0,6,6,6,6,6,6,6,6,6,6,6,6,6,6
684252.0,low,11.0 22.0,6,6,6,6,6,6,6,6,6,6,6,6,6,6
684252.0,low,3.0 12.0,8,8,8,8,8,8,8,8,8,8,8,8,8,8
684252.0,low,4.0 22.0,7,7,7,7,7,7,7,7,7,7,7,7,7,7
684252.0,low,7.0 12.0,7,7,7,7,7,7,7,7,7,7,7,7,7,7
684252.0,low,8.0 22.0,8,8,8,8,8,8,8,8,8,8,8,8,8,8
684262.0,high,11.0 11.0,8,8,8,8,8,8,8,8,8,8,8,8,8,8
684262.0,high,11.0 21.0,8,8,8,8,8,8,8,8,8,8,8,8,8,8
684262.0,high,3.0 11.0,8,8,8,8,8,8,8,8,8,8,8,8,8,8
684262.0,high,4.0 21.0,8,8,8,8,8,8,8,8,8,8,8,8,8,8
684262.0,high,7.0 11.0,8,8,8,8,8,8,8,8,8,8,8,8,8,8
684262.0,high,8.0 21.0,8,8,8,8,8,8,8,8,8,8,8,8,8,8
684262.0,low,11.0 12.0,8,8,8,8,8,8,8,8,8,8,8,8,8,8
684262.0,low,11.0 22.0,8,8,8,8,8,8,8,8,8,8,8,8,8,8
684262.0,low,3.0 12.0,8,8,8,8,8,8,8,8,8,8,8,8,8,8
684262.0,low,4.0 22.0,8,8,8,8,8,8,8,8,8,8,8,8,8,8
684262.0,low,7.0 12.0,8,8,8,8,8,8,8,8,8,8,8,8,8,8
684262.0,low,8.0 22.0,8,8,8,8,8,8,8,8,8,8,8,8,8,7
