index,id,environment,trial_label,trial_index,sum_latency,key_pressed
668220.0 11.0 12.0,668220.0,high,11.0 12.0,7,2392.0,7
668220.0 11.0 22.0,668220.0,high,11.0 22.0,7,1961.0,7
668220.0 3.0 12.0,668220.0,high,3.0 12.0,8,2491.0,8
668220.0 4.0 22.0,668220.0,high,4.0 22.0,7,2237.0,7
668220.0 7.0 12.0,668220.0,high,7.0 12.0,7,2312.0,7
668220.0 8.0 22.0,668220.0,high,8.0 22.0,7,2424.0,7
668220.0 11.0 11.0,668220.0,low,11.0 11.0,7,1777.0,7
668220.0 11.0 21.0,668220.0,low,11.0 21.0,8,2261.0,8
668220.0 3.0 11.0,668220.0,low,3.0 11.0,8,2504.0,8
668220.0 4.0 21.0,668220.0,low,4.0 21.0,7,2869.0,7
668220.0 7.0 11.0,668220.0,low,7.0 11.0,8,2330.0,8
668220.0 8.0 21.0,668220.0,low,8.0 21.0,8,2122.0,8
668225.0 11.0 12.0,668225.0,high,11.0 12.0,7,1869.0,7
668225.0 11.0 22.0,668225.0,high,11.0 22.0,8,1823.0,8
668225.0 3.0 12.0,668225.0,high,3.0 12.0,7,1988.0,7
668225.0 4.0 22.0,668225.0,high,4.0 22.0,7,1984.0,7
668225.0 7.0 12.0,668225.0,high,7.0 12.0,7,1541.0,7
668225.0 8.0 22.0,668225.0,high,8.0 22.0,7,1751.0,7
668225.0 11.0 11.0,668225.0,low,11.0 11.0,7,1740.0,7
668225.0 11.0 21.0,668225.0,low,11.0 21.0,8,1893.0,8
668225.0 3.0 11.0,668225.0,low,3.0 11.0,8,2180.0,8
668225.0 4.0 21.0,668225.0,low,4.0 21.0,7,2095.0,7
668225.0 7.0 11.0,668225.0,low,7.0 11.0,8,2644.0,8
668225.0 8.0 21.0,668225.0,low,8.0 21.0,7,2213.0,7
668237.0 11.0 11.0,668237.0,high,11.0 11.0,7,2279.0,7
668237.0 11.0 21.0,668237.0,high,11.0 21.0,7,2063.0,7
668237.0 3.0 11.0,668237.0,high,3.0 11.0,7,1962.0,7
668237.0 4.0 21.0,668237.0,high,4.0 21.0,8,1979.0,8
668237.0 7.0 11.0,668237.0,high,7.0 11.0,7,1814.0,7
668237.0 8.0 21.0,668237.0,high,8.0 21.0,8,2078.0,8
668237.0 11.0 12.0,668237.0,low,11.0 12.0,7,2081.0,7
668237.0 11.0 22.0,668237.0,low,11.0 22.0,7,1918.0,7
668237.0 3.0 12.0,668237.0,low,3.0 12.0,7,1879.0,7
668237.0 4.0 22.0,668237.0,low,4.0 22.0,1,886.0,1
668237.0 7.0 12.0,668237.0,low,7.0 12.0,7,1865.0,7
668237.0 8.0 22.0,668237.0,low,8.0 22.0,8,2196.0,8
668239.0 11.0 11.0,668239.0,high,11.0 11.0,8,1200.0,8
668239.0 11.0 21.0,668239.0,high,11.0 21.0,7,1489.0,7
668239.0 3.0 11.0,668239.0,high,3.0 11.0,7,1811.0,7
668239.0 4.0 21.0,668239.0,high,4.0 21.0,6,1491.0,6
668239.0 7.0 11.0,668239.0,high,7.0 11.0,8,1410.0,8
668239.0 8.0 21.0,668239.0,high,8.0 21.0,6,1785.0,6
668239.0 11.0 12.0,668239.0,low,11.0 12.0,7,1411.0,7
668239.0 11.0 22.0,668239.0,low,11.0 22.0,7,1229.0,7
668239.0 3.0 12.0,668239.0,low,3.0 12.0,8,1404.0,8
668239.0 4.0 22.0,668239.0,low,4.0 22.0,7,1201.0,7
668239.0 7.0 12.0,668239.0,low,7.0 12.0,7,2058.0,7
668239.0 8.0 22.0,668239.0,low,8.0 22.0,7,1821.0,7
668240.0 11.0 12.0,668240.0,high,11.0 12.0,8,2088.0,8
668240.0 11.0 22.0,668240.0,high,11.0 22.0,8,1963.0,8
668240.0 3.0 12.0,668240.0,high,3.0 12.0,8,1821.0,8
668240.0 7.0 12.0,668240.0,high,7.0 12.0,8,1826.0,8
668240.0 8.0 22.0,668240.0,high,8.0 22.0,8,1858.0,8
668240.0 11.0 11.0,668240.0,low,11.0 11.0,8,1867.0,8
668240.0 11.0 21.0,668240.0,low,11.0 21.0,8,1822.0,8
668240.0 3.0 11.0,668240.0,low,3.0 11.0,8,1942.0,8
668240.0 4.0 21.0,668240.0,low,4.0 21.0,8,1908.0,8
668240.0 7.0 11.0,668240.0,low,7.0 11.0,8,1697.0,8
668240.0 8.0 21.0,668240.0,low,8.0 21.0,8,1849.0,8
668244.0 11.0 11.0,668244.0,high,11.0 11.0,7,2019.0,7
668244.0 11.0 21.0,668244.0,high,11.0 21.0,8,1979.0,8
668244.0 3.0 11.0,668244.0,high,3.0 11.0,8,2084.0,8
668244.0 4.0 21.0,668244.0,high,4.0 21.0,8,3441.0,8
668244.0 7.0 11.0,668244.0,high,7.0 11.0,7,1956.0,7
668244.0 8.0 21.0,668244.0,high,8.0 21.0,7,1636.0,7
668244.0 11.0 12.0,668244.0,low,11.0 12.0,8,2376.0,8
668244.0 11.0 22.0,668244.0,low,11.0 22.0,8,1724.0,8
668244.0 3.0 12.0,668244.0,low,3.0 12.0,8,2270.0,8
668244.0 4.0 22.0,668244.0,low,4.0 22.0,8,1997.0,8
668244.0 7.0 12.0,668244.0,low,7.0 12.0,8,2390.0,8
668244.0 8.0 22.0,668244.0,low,8.0 22.0,3,1641.0,3
668245.0 11.0 12.0,668245.0,high,11.0 12.0,7,2237.0,7
668245.0 11.0 22.0,668245.0,high,11.0 22.0,6,2597.0,6
668245.0 3.0 12.0,668245.0,high,3.0 12.0,8,2033.0,8
668245.0 4.0 22.0,668245.0,high,4.0 22.0,8,2538.0,8
668245.0 7.0 12.0,668245.0,high,7.0 12.0,8,2172.0,8
668245.0 8.0 22.0,668245.0,high,8.0 22.0,8,1937.0,8
668245.0 11.0 11.0,668245.0,low,11.0 11.0,8,2318.0,8
668245.0 11.0 21.0,668245.0,low,11.0 21.0,8,3529.0,8
668245.0 3.0 11.0,668245.0,low,3.0 11.0,8,2578.0,8
668245.0 4.0 21.0,668245.0,low,4.0 21.0,6,2238.0,6
668245.0 7.0 11.0,668245.0,low,7.0 11.0,8,2312.0,8
668245.0 8.0 21.0,668245.0,low,8.0 21.0,8,2619.0,8
668246.0 11.0 11.0,668246.0,high,11.0 11.0,7,1413.0,7
668246.0 11.0 21.0,668246.0,high,11.0 21.0,1,450.0,1
668246.0 3.0 11.0,668246.0,high,3.0 11.0,8,1909.0,8
668246.0 4.0 21.0,668246.0,high,4.0 21.0,8,1925.0,8
668246.0 7.0 11.0,668246.0,high,7.0 11.0,7,1493.0,7
668246.0 8.0 21.0,668246.0,high,8.0 21.0,6,1528.0,6
668246.0 11.0 12.0,668246.0,low,11.0 12.0,7,1975.0,7
668246.0 11.0 22.0,668246.0,low,11.0 22.0,7,1813.0,7
668246.0 3.0 12.0,668246.0,low,3.0 12.0,7,1807.0,7
668246.0 4.0 22.0,668246.0,low,4.0 22.0,7,1598.0,7
668246.0 7.0 12.0,668246.0,low,7.0 12.0,7,1740.0,7
668246.0 8.0 22.0,668246.0,low,8.0 22.0,7,1699.0,7
668249.0 11.0 12.0,668249.0,high,11.0 12.0,7,1893.0,7
668249.0 11.0 22.0,668249.0,high,11.0 22.0,6,3227.0,6
668249.0 3.0 12.0,668249.0,high,3.0 12.0,8,1879.0,8
668249.0 4.0 22.0,668249.0,high,4.0 22.0,8,2252.0,8
668249.0 7.0 12.0,668249.0,high,7.0 12.0,8,1708.0,8
668249.0 8.0 22.0,668249.0,high,8.0 22.0,8,1849.0,8
668249.0 11.0 11.0,668249.0,low,11.0 11.0,8,1620.0,8
668249.0 11.0 21.0,668249.0,low,11.0 21.0,8,1807.0,8
668249.0 3.0 11.0,668249.0,low,3.0 11.0,8,1879.0,8
668249.0 4.0 21.0,668249.0,low,4.0 21.0,8,1792.0,8
668249.0 7.0 11.0,668249.0,low,7.0 11.0,8,1779.0,8
668249.0 8.0 21.0,668249.0,low,8.0 21.0,8,2036.0,8
668251.0 11.0 11.0,668251.0,high,11.0 11.0,8,2668.0,8
668251.0 11.0 21.0,668251.0,high,11.0 21.0,8,2127.0,8
668251.0 3.0 11.0,668251.0,high,3.0 11.0,8,2484.0,8
668251.0 4.0 21.0,668251.0,high,4.0 21.0,8,2685.0,8
668251.0 7.0 11.0,668251.0,high,7.0 11.0,8,2120.0,8
668251.0 8.0 21.0,668251.0,high,8.0 21.0,6,2541.0,6
668251.0 11.0 22.0,668251.0,low,11.0 22.0,8,3207.0,8
668251.0 3.0 12.0,668251.0,low,3.0 12.0,8,3844.0,8
668251.0 4.0 22.0,668251.0,low,4.0 22.0,8,3632.0,8
668251.0 8.0 22.0,668251.0,low,8.0 22.0,8,3244.0,8
668253.0 11.0 12.0,668253.0,high,11.0 12.0,8,1750.0,8
668253.0 11.0 22.0,668253.0,high,11.0 22.0,2,1027.0,2
668253.0 3.0 12.0,668253.0,high,3.0 12.0,8,2609.0,8
668253.0 4.0 22.0,668253.0,high,4.0 22.0,8,2015.0,8
668253.0 7.0 12.0,668253.0,high,7.0 12.0,8,2036.0,8
668253.0 8.0 22.0,668253.0,high,8.0 22.0,8,1778.0,8
668253.0 11.0 11.0,668253.0,low,11.0 11.0,8,1957.0,8
668253.0 11.0 21.0,668253.0,low,11.0 21.0,4,2002.0,4
668253.0 3.0 11.0,668253.0,low,3.0 11.0,7,1953.0,7
668253.0 4.0 21.0,668253.0,low,4.0 21.0,8,2080.0,8
668253.0 7.0 11.0,668253.0,low,7.0 11.0,8,1661.0,8
668253.0 8.0 21.0,668253.0,low,8.0 21.0,8,2761.0,8
668254.0 11.0 12.0,668254.0,high,11.0 12.0,7,2067.0,7
668254.0 11.0 22.0,668254.0,high,11.0 22.0,7,1703.0,7
668254.0 3.0 12.0,668254.0,high,3.0 12.0,8,2004.0,8
668254.0 4.0 22.0,668254.0,high,4.0 22.0,11,1917.0,7
668254.0 7.0 12.0,668254.0,high,7.0 12.0,6,2152.0,6
668254.0 8.0 22.0,668254.0,high,8.0 22.0,7,2399.0,7
668254.0 11.0 11.0,668254.0,low,11.0 11.0,7,2024.0,7
668254.0 11.0 21.0,668254.0,low,11.0 21.0,7,1838.0,7
668254.0 3.0 11.0,668254.0,low,3.0 11.0,8,2284.0,8
668254.0 4.0 21.0,668254.0,low,4.0 21.0,7,2261.0,7
668254.0 7.0 11.0,668254.0,low,7.0 11.0,7,1946.0,7
668254.0 8.0 21.0,668254.0,low,8.0 21.0,7,2098.0,7
668262.0 11.0 12.0,668262.0,high,11.0 12.0,7,2241.0,7
668262.0 11.0 22.0,668262.0,high,11.0 22.0,8,3024.0,8
668262.0 3.0 12.0,668262.0,high,3.0 12.0,8,2185.0,8
668262.0 4.0 22.0,668262.0,high,4.0 22.0,7,2126.0,7
668262.0 7.0 12.0,668262.0,high,7.0 12.0,8,2660.0,8
668262.0 8.0 22.0,668262.0,high,8.0 22.0,8,2378.0,8
668262.0 11.0 11.0,668262.0,low,11.0 11.0,8,4038.0,8
668262.0 3.0 11.0,668262.0,low,3.0 11.0,7,2420.0,7
668262.0 4.0 21.0,668262.0,low,4.0 21.0,7,2180.0,7
668262.0 7.0 11.0,668262.0,low,7.0 11.0,7,2390.0,7
668262.0 8.0 21.0,668262.0,low,8.0 21.0,7,1845.0,7
668263.0 11.0 11.0,668263.0,high,11.0 11.0,8,1899.0,8
668263.0 11.0 21.0,668263.0,high,11.0 21.0,8,1704.0,8
668263.0 3.0 11.0,668263.0,high,3.0 11.0,8,1519.0,8
668263.0 4.0 21.0,668263.0,high,4.0 21.0,8,1734.0,8
668263.0 7.0 11.0,668263.0,high,7.0 11.0,8,1747.0,8
668263.0 11.0 12.0,668263.0,low,11.0 12.0,8,2604.0,8
668263.0 11.0 22.0,668263.0,low,11.0 22.0,8,2277.0,8
668263.0 3.0 12.0,668263.0,low,3.0 12.0,8,2284.0,8
668263.0 4.0 22.0,668263.0,low,4.0 22.0,8,2070.0,8
668263.0 7.0 12.0,668263.0,low,7.0 12.0,8,2301.0,8
668263.0 8.0 22.0,668263.0,low,8.0 22.0,6,1819.0,6
668267.0 11.0 12.0,668267.0,high,11.0 12.0,6,1603.0,6
668267.0 11.0 22.0,668267.0,high,11.0 22.0,4,2017.0,4
668267.0 3.0 12.0,668267.0,high,3.0 12.0,4,1827.0,4
668267.0 4.0 22.0,668267.0,high,4.0 22.0,6,1911.0,6
668267.0 7.0 12.0,668267.0,high,7.0 12.0,7,1712.0,7
668267.0 8.0 22.0,668267.0,high,8.0 22.0,10,1721.0,7
668267.0 11.0 11.0,668267.0,low,11.0 11.0,6,1607.0,6
668267.0 11.0 21.0,668267.0,low,11.0 21.0,7,1841.0,7
668267.0 3.0 11.0,668267.0,low,3.0 11.0,7,2178.0,7
668267.0 4.0 21.0,668267.0,low,4.0 21.0,7,1802.0,7
668267.0 7.0 11.0,668267.0,low,7.0 11.0,7,1538.0,7
668267.0 8.0 21.0,668267.0,low,8.0 21.0,3,2385.0,3
668274.0 11.0 11.0,668274.0,high,11.0 11.0,11,2106.0,7
668274.0 11.0 21.0,668274.0,high,11.0 21.0,8,2317.0,8
668274.0 3.0 11.0,668274.0,high,3.0 11.0,7,2541.0,7
668274.0 4.0 21.0,668274.0,high,4.0 21.0,4,2396.0,4
668274.0 7.0 11.0,668274.0,high,7.0 11.0,7,2037.0,7
668274.0 8.0 21.0,668274.0,high,8.0 21.0,8,2057.0,8
668274.0 11.0 12.0,668274.0,low,11.0 12.0,7,2241.0,7
668274.0 11.0 22.0,668274.0,low,11.0 22.0,8,2225.0,8
668274.0 3.0 12.0,668274.0,low,3.0 12.0,8,2277.0,8
668274.0 4.0 22.0,668274.0,low,4.0 22.0,8,1696.0,8
668274.0 7.0 12.0,668274.0,low,7.0 12.0,8,2279.0,8
668274.0 8.0 22.0,668274.0,low,8.0 22.0,6,1972.0,6
668370.0 11.0 11.0,668370.0,high,11.0 11.0,8,1532.0,8
668370.0 11.0 21.0,668370.0,high,11.0 21.0,8,2356.0,8
668370.0 3.0 11.0,668370.0,high,3.0 11.0,8,1637.0,8
668370.0 4.0 21.0,668370.0,high,4.0 21.0,8,1438.0,8
668370.0 7.0 11.0,668370.0,high,7.0 11.0,8,1574.0,8
668370.0 8.0 21.0,668370.0,high,8.0 21.0,8,2036.0,8
668370.0 11.0 12.0,668370.0,low,11.0 12.0,8,1423.0,8
668370.0 11.0 22.0,668370.0,low,11.0 22.0,8,1945.0,8
668370.0 3.0 12.0,668370.0,low,3.0 12.0,8,2136.0,8
668370.0 4.0 22.0,668370.0,low,4.0 22.0,8,2159.0,8
668370.0 7.0 12.0,668370.0,low,7.0 12.0,8,1626.0,8
668370.0 8.0 22.0,668370.0,low,8.0 22.0,8,1756.0,8
672044.0 11.0 11.0,672044.0,high,11.0 11.0,8,2557.0,8
672044.0 11.0 21.0,672044.0,high,11.0 21.0,8,2089.0,8
672044.0 3.0 11.0,672044.0,high,3.0 11.0,8,2510.0,8
672044.0 4.0 21.0,672044.0,high,4.0 21.0,8,2743.0,8
672044.0 7.0 11.0,672044.0,high,7.0 11.0,8,2431.0,8
672044.0 8.0 21.0,672044.0,high,8.0 21.0,8,2195.0,8
672044.0 11.0 12.0,672044.0,low,11.0 12.0,8,1988.0,8
672044.0 11.0 22.0,672044.0,low,11.0 22.0,8,2024.0,8
672044.0 3.0 12.0,672044.0,low,3.0 12.0,8,2100.0,8
672044.0 4.0 22.0,672044.0,low,4.0 22.0,8,2366.0,8
672044.0 7.0 12.0,672044.0,low,7.0 12.0,8,1996.0,8
672044.0 8.0 22.0,672044.0,low,8.0 22.0,8,1875.0,8
672045.0 11.0 11.0,672045.0,high,11.0 11.0,8,1867.0,8
672045.0 11.0 21.0,672045.0,high,11.0 21.0,5,1864.0,5
672045.0 3.0 11.0,672045.0,high,3.0 11.0,8,1976.0,8
672045.0 4.0 21.0,672045.0,high,4.0 21.0,7,1819.0,7
672045.0 7.0 11.0,672045.0,high,7.0 11.0,8,2605.0,8
672045.0 8.0 21.0,672045.0,high,8.0 21.0,8,1908.0,8
672045.0 11.0 12.0,672045.0,low,11.0 12.0,8,1661.0,8
672045.0 11.0 22.0,672045.0,low,11.0 22.0,7,1939.0,7
672045.0 3.0 12.0,672045.0,low,3.0 12.0,7,2095.0,7
672045.0 4.0 22.0,672045.0,low,4.0 22.0,8,2162.0,8
672045.0 7.0 12.0,672045.0,low,7.0 12.0,8,1831.0,8
672045.0 8.0 22.0,672045.0,low,8.0 22.0,7,1732.0,7
672046.0 11.0 12.0,672046.0,high,11.0 12.0,8,2306.0,8
672046.0 11.0 22.0,672046.0,high,11.0 22.0,8,2323.0,8
672046.0 3.0 12.0,672046.0,high,3.0 12.0,8,2090.0,8
672046.0 4.0 22.0,672046.0,high,4.0 22.0,8,2284.0,8
672046.0 7.0 12.0,672046.0,high,7.0 12.0,8,2194.0,8
672046.0 8.0 22.0,672046.0,high,8.0 22.0,8,2449.0,8
672046.0 11.0 11.0,672046.0,low,11.0 11.0,8,1979.0,8
672046.0 11.0 21.0,672046.0,low,11.0 21.0,8,2127.0,8
672046.0 3.0 11.0,672046.0,low,3.0 11.0,8,2388.0,8
672046.0 4.0 21.0,672046.0,low,4.0 21.0,8,2046.0,8
672046.0 7.0 11.0,672046.0,low,7.0 11.0,8,1933.0,8
672046.0 8.0 21.0,672046.0,low,8.0 21.0,8,2075.0,8
672581.0 11.0 11.0,672581.0,high,11.0 11.0,8,1643.0,8
672581.0 11.0 21.0,672581.0,high,11.0 21.0,8,1684.0,8
672581.0 3.0 11.0,672581.0,high,3.0 11.0,8,1662.0,8
672581.0 4.0 21.0,672581.0,high,4.0 21.0,8,2034.0,8
672581.0 7.0 11.0,672581.0,high,7.0 11.0,8,1813.0,8
672581.0 8.0 21.0,672581.0,high,8.0 21.0,8,1650.0,8
672581.0 11.0 12.0,672581.0,low,11.0 12.0,8,1769.0,8
672581.0 11.0 22.0,672581.0,low,11.0 22.0,5,1460.0,5
672581.0 3.0 12.0,672581.0,low,3.0 12.0,8,1882.0,8
672581.0 4.0 22.0,672581.0,low,4.0 22.0,8,1781.0,8
672581.0 7.0 12.0,672581.0,low,7.0 12.0,8,2098.0,8
672581.0 8.0 22.0,672581.0,low,8.0 22.0,8,1788.0,8
672582.0 11.0 12.0,672582.0,high,11.0 12.0,8,2156.0,8
672582.0 11.0 22.0,672582.0,high,11.0 22.0,8,2257.0,8
672582.0 3.0 12.0,672582.0,high,3.0 12.0,8,2282.0,8
672582.0 4.0 22.0,672582.0,high,4.0 22.0,8,2259.0,8
672582.0 7.0 12.0,672582.0,high,7.0 12.0,8,2066.0,8
672582.0 8.0 22.0,672582.0,high,8.0 22.0,8,2060.0,8
672582.0 11.0 11.0,672582.0,low,11.0 11.0,8,2200.0,8
672582.0 11.0 21.0,672582.0,low,11.0 21.0,8,2124.0,8
672582.0 3.0 11.0,672582.0,low,3.0 11.0,8,2229.0,8
672582.0 4.0 21.0,672582.0,low,4.0 21.0,8,2038.0,8
672582.0 7.0 11.0,672582.0,low,7.0 11.0,8,2202.0,8
672582.0 8.0 21.0,672582.0,low,8.0 21.0,8,2110.0,8
672585.0 11.0 12.0,672585.0,high,11.0 12.0,8,2463.0,8
672585.0 11.0 22.0,672585.0,high,11.0 22.0,8,2368.0,8
672585.0 3.0 12.0,672585.0,high,3.0 12.0,8,2744.0,8
672585.0 4.0 22.0,672585.0,high,4.0 22.0,7,2524.0,7
672585.0 7.0 12.0,672585.0,high,7.0 12.0,8,2653.0,8
672585.0 8.0 22.0,672585.0,high,8.0 22.0,8,2636.0,8
672585.0 11.0 11.0,672585.0,low,11.0 11.0,8,2680.0,8
672585.0 11.0 21.0,672585.0,low,11.0 21.0,8,2644.0,8
672585.0 3.0 11.0,672585.0,low,3.0 11.0,8,3853.0,8
672585.0 4.0 21.0,672585.0,low,4.0 21.0,8,2777.0,8
672585.0 7.0 11.0,672585.0,low,7.0 11.0,8,2774.0,8
672585.0 8.0 21.0,672585.0,low,8.0 21.0,8,2831.0,8
672586.0 11.0 12.0,672586.0,high,11.0 12.0,8,2067.0,8
672586.0 11.0 22.0,672586.0,high,11.0 22.0,8,2218.0,8
672586.0 3.0 12.0,672586.0,high,3.0 12.0,8,2797.0,8
672586.0 4.0 22.0,672586.0,high,4.0 22.0,8,2148.0,8
672586.0 7.0 12.0,672586.0,high,7.0 12.0,7,5196.0,7
672586.0 8.0 22.0,672586.0,high,8.0 22.0,8,5023.0,8
672586.0 11.0 11.0,672586.0,low,11.0 11.0,8,2148.0,8
672586.0 11.0 21.0,672586.0,low,11.0 21.0,8,3067.0,8
672586.0 3.0 11.0,672586.0,low,3.0 11.0,8,2374.0,8
672586.0 4.0 21.0,672586.0,low,4.0 21.0,7,2040.0,7
672586.0 7.0 11.0,672586.0,low,7.0 11.0,6,2385.0,6
672586.0 8.0 21.0,672586.0,low,8.0 21.0,8,2983.0,8
672587.0 11.0 12.0,672587.0,high,11.0 12.0,8,1627.0,8
672587.0 11.0 22.0,672587.0,high,11.0 22.0,8,1827.0,8
672587.0 3.0 12.0,672587.0,high,3.0 12.0,8,1944.0,8
672587.0 4.0 22.0,672587.0,high,4.0 22.0,8,1678.0,8
672587.0 7.0 12.0,672587.0,high,7.0 12.0,8,1960.0,8
672587.0 8.0 22.0,672587.0,high,8.0 22.0,8,2065.0,8
672587.0 11.0 11.0,672587.0,low,11.0 11.0,8,1773.0,8
672587.0 11.0 21.0,672587.0,low,11.0 21.0,7,1663.0,7
672587.0 3.0 11.0,672587.0,low,3.0 11.0,8,1403.0,8
672587.0 4.0 21.0,672587.0,low,4.0 21.0,8,2273.0,8
672587.0 7.0 11.0,672587.0,low,7.0 11.0,8,2163.0,8
672587.0 8.0 21.0,672587.0,low,8.0 21.0,8,1636.0,8
672588.0 11.0 11.0,672588.0,high,11.0 11.0,8,1755.0,8
672588.0 11.0 21.0,672588.0,high,11.0 21.0,8,1538.0,8
672588.0 3.0 11.0,672588.0,high,3.0 11.0,8,1487.0,8
672588.0 4.0 21.0,672588.0,high,4.0 21.0,8,1477.0,8
672588.0 7.0 11.0,672588.0,high,7.0 11.0,8,1520.0,8
672588.0 8.0 21.0,672588.0,high,8.0 21.0,8,1485.0,8
672588.0 11.0 12.0,672588.0,low,11.0 12.0,8,1452.0,8
672588.0 11.0 22.0,672588.0,low,11.0 22.0,8,2017.0,8
672588.0 3.0 12.0,672588.0,low,3.0 12.0,8,1596.0,8
672588.0 4.0 22.0,672588.0,low,4.0 22.0,7,1761.0,7
672588.0 7.0 12.0,672588.0,low,7.0 12.0,8,1523.0,8
672588.0 8.0 22.0,672588.0,low,8.0 22.0,8,1667.0,8
672590.0 11.0 11.0,672590.0,high,11.0 11.0,8,2132.0,8
672590.0 11.0 21.0,672590.0,high,11.0 21.0,8,2447.0,8
672590.0 3.0 11.0,672590.0,high,3.0 11.0,7,2644.0,7
672590.0 4.0 21.0,672590.0,high,4.0 21.0,8,2812.0,8
672590.0 7.0 11.0,672590.0,high,7.0 11.0,8,2058.0,8
672590.0 8.0 21.0,672590.0,high,8.0 21.0,8,2528.0,8
672590.0 11.0 12.0,672590.0,low,11.0 12.0,8,2168.0,8
672590.0 11.0 22.0,672590.0,low,11.0 22.0,8,2040.0,8
672590.0 3.0 12.0,672590.0,low,3.0 12.0,8,2011.0,8
672590.0 4.0 22.0,672590.0,low,4.0 22.0,8,1958.0,8
672590.0 7.0 12.0,672590.0,low,7.0 12.0,8,2301.0,8
672590.0 8.0 22.0,672590.0,low,8.0 22.0,8,1958.0,8
672592.0 11.0 11.0,672592.0,high,11.0 11.0,8,1714.0,8
672592.0 11.0 21.0,672592.0,high,11.0 21.0,8,1956.0,8
672592.0 3.0 11.0,672592.0,high,3.0 11.0,8,1625.0,8
672592.0 4.0 21.0,672592.0,high,4.0 21.0,8,1675.0,8
672592.0 7.0 11.0,672592.0,high,7.0 11.0,8,1858.0,8
672592.0 8.0 21.0,672592.0,high,8.0 21.0,8,2018.0,8
672592.0 11.0 12.0,672592.0,low,11.0 12.0,8,1825.0,8
672592.0 11.0 22.0,672592.0,low,11.0 22.0,8,2483.0,8
672592.0 3.0 12.0,672592.0,low,3.0 12.0,8,1939.0,8
672592.0 4.0 22.0,672592.0,low,4.0 22.0,8,1879.0,8
672592.0 7.0 12.0,672592.0,low,7.0 12.0,8,2338.0,8
672592.0 8.0 22.0,672592.0,low,8.0 22.0,8,2073.0,8
672594.0 11.0 11.0,672594.0,high,11.0 11.0,8,2015.0,8
672594.0 11.0 21.0,672594.0,high,11.0 21.0,8,1623.0,8
672594.0 3.0 11.0,672594.0,high,3.0 11.0,8,2100.0,8
672594.0 4.0 21.0,672594.0,high,4.0 21.0,8,1500.0,8
672594.0 7.0 11.0,672594.0,high,7.0 11.0,8,1818.0,8
672594.0 8.0 21.0,672594.0,high,8.0 21.0,8,1570.0,8
672594.0 11.0 12.0,672594.0,low,11.0 12.0,8,1856.0,8
672594.0 11.0 22.0,672594.0,low,11.0 22.0,7,1697.0,7
672594.0 3.0 12.0,672594.0,low,3.0 12.0,8,1887.0,8
672594.0 4.0 22.0,672594.0,low,4.0 22.0,8,1725.0,8
672594.0 7.0 12.0,672594.0,low,7.0 12.0,8,2218.0,8
672594.0 8.0 22.0,672594.0,low,8.0 22.0,8,1824.0,8
672595.0 11.0 12.0,672595.0,high,11.0 12.0,8,1380.0,8
672595.0 11.0 22.0,672595.0,high,11.0 22.0,8,1338.0,8
672595.0 3.0 12.0,672595.0,high,3.0 12.0,8,1501.0,8
672595.0 4.0 22.0,672595.0,high,4.0 22.0,8,1318.0,8
672595.0 7.0 12.0,672595.0,high,7.0 12.0,8,1493.0,8
672595.0 8.0 22.0,672595.0,high,8.0 22.0,8,1350.0,8
672595.0 11.0 11.0,672595.0,low,11.0 11.0,8,1333.0,8
672595.0 11.0 21.0,672595.0,low,11.0 21.0,8,1509.0,8
672595.0 3.0 11.0,672595.0,low,3.0 11.0,8,1448.0,8
672595.0 4.0 21.0,672595.0,low,4.0 21.0,8,1292.0,8
672595.0 7.0 11.0,672595.0,low,7.0 11.0,8,1300.0,8
672595.0 8.0 21.0,672595.0,low,8.0 21.0,6,1609.0,6
672611.0 11.0 12.0,672611.0,high,11.0 12.0,6,1987.0,6
672611.0 11.0 22.0,672611.0,high,11.0 22.0,7,3789.0,7
672611.0 3.0 12.0,672611.0,high,3.0 12.0,7,2255.0,7
672611.0 4.0 22.0,672611.0,high,4.0 22.0,7,2170.0,7
672611.0 7.0 12.0,672611.0,high,7.0 12.0,7,2017.0,7
672611.0 8.0 22.0,672611.0,high,8.0 22.0,7,1965.0,7
672611.0 11.0 11.0,672611.0,low,11.0 11.0,7,1855.0,7
672611.0 11.0 21.0,672611.0,low,11.0 21.0,7,2028.0,7
672611.0 3.0 11.0,672611.0,low,3.0 11.0,7,2162.0,7
672611.0 4.0 21.0,672611.0,low,4.0 21.0,7,1829.0,7
672611.0 7.0 11.0,672611.0,low,7.0 11.0,7,1895.0,7
672611.0 8.0 21.0,672611.0,low,8.0 21.0,7,1915.0,7
672614.0 11.0 11.0,672614.0,high,11.0 11.0,7,1762.0,7
672614.0 11.0 21.0,672614.0,high,11.0 21.0,6,3088.0,6
672614.0 3.0 11.0,672614.0,high,3.0 11.0,7,1557.0,7
672614.0 4.0 21.0,672614.0,high,4.0 21.0,7,1437.0,7
672614.0 7.0 11.0,672614.0,high,7.0 11.0,6,1992.0,6
672614.0 8.0 21.0,672614.0,high,8.0 21.0,7,2083.0,7
672614.0 11.0 12.0,672614.0,low,11.0 12.0,6,1331.0,6
672614.0 11.0 22.0,672614.0,low,11.0 22.0,7,1734.0,7
672614.0 3.0 12.0,672614.0,low,3.0 12.0,7,1393.0,7
672614.0 4.0 22.0,672614.0,low,4.0 22.0,6,1798.0,6
672614.0 7.0 12.0,672614.0,low,7.0 12.0,6,1483.0,6
672614.0 8.0 22.0,672614.0,low,8.0 22.0,6,1953.0,6
672655.0 11.0 11.0,672655.0,high,11.0 11.0,6,1627.0,6
672655.0 11.0 21.0,672655.0,high,11.0 21.0,8,1882.0,8
672655.0 3.0 11.0,672655.0,high,3.0 11.0,7,1703.0,7
672655.0 4.0 21.0,672655.0,high,4.0 21.0,8,1726.0,8
672655.0 7.0 11.0,672655.0,high,7.0 11.0,6,1715.0,6
672655.0 8.0 21.0,672655.0,high,8.0 21.0,8,1773.0,8
672655.0 11.0 12.0,672655.0,low,11.0 12.0,8,2486.0,8
672655.0 11.0 22.0,672655.0,low,11.0 22.0,8,2323.0,8
672655.0 3.0 12.0,672655.0,low,3.0 12.0,8,1788.0,8
672655.0 4.0 22.0,672655.0,low,4.0 22.0,8,2078.0,8
672655.0 7.0 12.0,672655.0,low,7.0 12.0,8,2013.0,8
672655.0 8.0 22.0,672655.0,low,8.0 22.0,8,1956.0,8
674197.0 11.0 12.0,674197.0,high,11.0 12.0,8,1789.0,8
674197.0 11.0 22.0,674197.0,high,11.0 22.0,8,1909.0,8
674197.0 3.0 12.0,674197.0,high,3.0 12.0,8,1997.0,8
674197.0 4.0 22.0,674197.0,high,4.0 22.0,8,2166.0,8
674197.0 7.0 12.0,674197.0,high,7.0 12.0,7,2025.0,7
674197.0 8.0 22.0,674197.0,high,8.0 22.0,7,1967.0,7
674197.0 11.0 11.0,674197.0,low,11.0 11.0,7,2039.0,7
674197.0 11.0 21.0,674197.0,low,11.0 21.0,8,1838.0,8
674197.0 3.0 11.0,674197.0,low,3.0 11.0,8,2524.0,8
674197.0 4.0 21.0,674197.0,low,4.0 21.0,8,1929.0,8
674197.0 7.0 11.0,674197.0,low,7.0 11.0,8,2031.0,8
674197.0 8.0 21.0,674197.0,low,8.0 21.0,7,2180.0,7
675515.0 11.0 12.0,675515.0,high,11.0 12.0,7,2308.0,7
675515.0 11.0 22.0,675515.0,high,11.0 22.0,7,2248.0,7
675515.0 3.0 12.0,675515.0,high,3.0 12.0,7,1953.0,7
675515.0 4.0 22.0,675515.0,high,4.0 22.0,8,1960.0,8
675515.0 7.0 12.0,675515.0,high,7.0 12.0,7,1937.0,7
675515.0 8.0 22.0,675515.0,high,8.0 22.0,8,2302.0,8
675515.0 11.0 11.0,675515.0,low,11.0 11.0,8,2063.0,8
675515.0 11.0 21.0,675515.0,low,11.0 21.0,7,2021.0,7
675515.0 3.0 11.0,675515.0,low,3.0 11.0,7,1910.0,7
675515.0 4.0 21.0,675515.0,low,4.0 21.0,7,1751.0,7
675515.0 7.0 11.0,675515.0,low,7.0 11.0,6,2742.0,6
675515.0 8.0 21.0,675515.0,low,8.0 21.0,8,2165.0,8
675528.0 11.0 12.0,675528.0,high,11.0 12.0,8,2223.0,8
675528.0 11.0 22.0,675528.0,high,11.0 22.0,8,2258.0,8
675528.0 3.0 12.0,675528.0,high,3.0 12.0,8,2263.0,8
675528.0 4.0 22.0,675528.0,high,4.0 22.0,8,2236.0,8
675528.0 7.0 12.0,675528.0,high,7.0 12.0,8,2389.0,8
675528.0 8.0 22.0,675528.0,high,8.0 22.0,8,2850.0,8
675528.0 11.0 11.0,675528.0,low,11.0 11.0,8,2329.0,8
675528.0 11.0 21.0,675528.0,low,11.0 21.0,8,2583.0,8
675528.0 3.0 11.0,675528.0,low,3.0 11.0,8,2898.0,8
675528.0 4.0 21.0,675528.0,low,4.0 21.0,8,2380.0,8
675528.0 7.0 11.0,675528.0,low,7.0 11.0,8,2368.0,8
675528.0 8.0 21.0,675528.0,low,8.0 21.0,8,4512.0,8
675579.0 11.0 11.0,675579.0,high,11.0 11.0,8,2097.0,8
675579.0 11.0 21.0,675579.0,high,11.0 21.0,6,2151.0,6
675579.0 3.0 11.0,675579.0,high,3.0 11.0,7,1844.0,7
675579.0 4.0 21.0,675579.0,high,4.0 21.0,8,2045.0,8
675579.0 7.0 11.0,675579.0,high,7.0 11.0,8,1852.0,8
675579.0 8.0 21.0,675579.0,high,8.0 21.0,8,2080.0,8
675579.0 11.0 12.0,675579.0,low,11.0 12.0,8,2267.0,8
675579.0 11.0 22.0,675579.0,low,11.0 22.0,8,1939.0,8
675579.0 3.0 12.0,675579.0,low,3.0 12.0,8,1909.0,8
675579.0 4.0 22.0,675579.0,low,4.0 22.0,8,2001.0,8
675579.0 7.0 12.0,675579.0,low,7.0 12.0,8,1902.0,8
675579.0 8.0 22.0,675579.0,low,8.0 22.0,8,2022.0,8
675592.0 11.0 12.0,675592.0,high,11.0 12.0,7,1929.0,7
675592.0 3.0 12.0,675592.0,high,3.0 12.0,7,1953.0,7
675592.0 4.0 22.0,675592.0,high,4.0 22.0,7,2210.0,7
675592.0 7.0 12.0,675592.0,high,7.0 12.0,6,2176.0,6
675592.0 8.0 22.0,675592.0,high,8.0 22.0,7,2655.0,7
675592.0 11.0 11.0,675592.0,low,11.0 11.0,5,2356.0,5
675592.0 11.0 21.0,675592.0,low,11.0 21.0,7,2652.0,7
675592.0 3.0 11.0,675592.0,low,3.0 11.0,7,2758.0,7
675592.0 4.0 21.0,675592.0,low,4.0 21.0,6,1988.0,6
675592.0 7.0 11.0,675592.0,low,7.0 11.0,6,2730.0,6
675592.0 8.0 21.0,675592.0,low,8.0 21.0,7,2066.0,7
675610.0 11.0 12.0,675610.0,high,11.0 12.0,8,3060.0,8
675610.0 11.0 22.0,675610.0,high,11.0 22.0,8,3437.0,8
675610.0 3.0 12.0,675610.0,high,3.0 12.0,8,2838.0,8
675610.0 4.0 22.0,675610.0,high,4.0 22.0,6,3024.0,6
675610.0 7.0 12.0,675610.0,high,7.0 12.0,8,3744.0,8
675610.0 8.0 22.0,675610.0,high,8.0 22.0,8,3704.0,8
675610.0 11.0 11.0,675610.0,low,11.0 11.0,8,4328.0,8
675610.0 11.0 21.0,675610.0,low,11.0 21.0,8,3920.0,8
675610.0 3.0 11.0,675610.0,low,3.0 11.0,8,5168.0,8
675610.0 4.0 21.0,675610.0,low,4.0 21.0,8,4962.0,8
675610.0 7.0 11.0,675610.0,low,7.0 11.0,8,3942.0,8
675625.0 11.0 21.0,675625.0,high,11.0 21.0,7,2129.0,7
675625.0 3.0 11.0,675625.0,high,3.0 11.0,7,1709.0,7
675625.0 4.0 21.0,675625.0,high,4.0 21.0,7,1746.0,7
675625.0 7.0 11.0,675625.0,high,7.0 11.0,8,2245.0,8
675625.0 8.0 21.0,675625.0,high,8.0 21.0,8,1593.0,8
675625.0 11.0 12.0,675625.0,low,11.0 12.0,8,2034.0,8
675625.0 11.0 22.0,675625.0,low,11.0 22.0,6,1720.0,6
675625.0 3.0 12.0,675625.0,low,3.0 12.0,8,1895.0,8
675625.0 4.0 22.0,675625.0,low,4.0 22.0,8,1678.0,8
675625.0 7.0 12.0,675625.0,low,7.0 12.0,7,1949.0,7
675625.0 8.0 22.0,675625.0,low,8.0 22.0,8,1640.0,8
675631.0 11.0 11.0,675631.0,high,11.0 11.0,8,1994.0,8
675631.0 11.0 21.0,675631.0,high,11.0 21.0,5,1964.0,5
675631.0 4.0 21.0,675631.0,high,4.0 21.0,8,2002.0,8
675631.0 7.0 11.0,675631.0,high,7.0 11.0,8,2068.0,8
675631.0 8.0 21.0,675631.0,high,8.0 21.0,8,2167.0,8
675631.0 11.0 12.0,675631.0,low,11.0 12.0,8,1990.0,8
675631.0 11.0 22.0,675631.0,low,11.0 22.0,8,2040.0,8
675631.0 3.0 12.0,675631.0,low,3.0 12.0,7,2019.0,7
675631.0 4.0 22.0,675631.0,low,4.0 22.0,8,1995.0,8
675631.0 7.0 12.0,675631.0,low,7.0 12.0,8,2073.0,8
675631.0 8.0 22.0,675631.0,low,8.0 22.0,8,2226.0,8
675635.0 11.0 12.0,675635.0,high,11.0 12.0,8,1772.0,8
675635.0 11.0 22.0,675635.0,high,11.0 22.0,7,1564.0,7
675635.0 3.0 12.0,675635.0,high,3.0 12.0,7,1501.0,7
675635.0 4.0 22.0,675635.0,high,4.0 22.0,8,1670.0,8
675635.0 7.0 12.0,675635.0,high,7.0 12.0,7,1664.0,7
675635.0 8.0 22.0,675635.0,high,8.0 22.0,8,1781.0,8
675635.0 11.0 11.0,675635.0,low,11.0 11.0,8,1999.0,8
675635.0 11.0 21.0,675635.0,low,11.0 21.0,8,1774.0,8
675635.0 3.0 11.0,675635.0,low,3.0 11.0,3,1937.0,3
675635.0 4.0 21.0,675635.0,low,4.0 21.0,8,1781.0,8
675635.0 7.0 11.0,675635.0,low,7.0 11.0,8,1929.0,8
675635.0 8.0 21.0,675635.0,low,8.0 21.0,8,1672.0,8
675636.0 11.0 11.0,675636.0,high,11.0 11.0,8,2069.0,8
675636.0 11.0 21.0,675636.0,high,11.0 21.0,8,1926.0,8
675636.0 3.0 11.0,675636.0,high,3.0 11.0,8,2219.0,8
675636.0 4.0 21.0,675636.0,high,4.0 21.0,7,2066.0,7
675636.0 7.0 11.0,675636.0,high,7.0 11.0,8,2046.0,8
675636.0 8.0 21.0,675636.0,high,8.0 21.0,8,2140.0,8
675636.0 11.0 12.0,675636.0,low,11.0 12.0,7,2055.0,7
675636.0 11.0 22.0,675636.0,low,11.0 22.0,8,2068.0,8
675636.0 3.0 12.0,675636.0,low,3.0 12.0,7,2132.0,7
675636.0 4.0 22.0,675636.0,low,4.0 22.0,7,2038.0,7
675636.0 7.0 12.0,675636.0,low,7.0 12.0,7,2391.0,7
675636.0 8.0 22.0,675636.0,low,8.0 22.0,8,2024.0,8
675643.0 11.0 11.0,675643.0,high,11.0 11.0,7,2031.0,7
675643.0 11.0 21.0,675643.0,high,11.0 21.0,8,1971.0,8
675643.0 3.0 11.0,675643.0,high,3.0 11.0,7,1874.0,7
675643.0 4.0 21.0,675643.0,high,4.0 21.0,7,2377.0,7
675643.0 7.0 11.0,675643.0,high,7.0 11.0,8,2501.0,8
675643.0 8.0 21.0,675643.0,high,8.0 21.0,7,1863.0,7
675643.0 11.0 12.0,675643.0,low,11.0 12.0,8,2237.0,8
675643.0 11.0 22.0,675643.0,low,11.0 22.0,7,2691.0,7
675643.0 3.0 12.0,675643.0,low,3.0 12.0,7,2319.0,7
675643.0 4.0 22.0,675643.0,low,4.0 22.0,8,2335.0,8
675643.0 7.0 12.0,675643.0,low,7.0 12.0,7,2718.0,7
675643.0 8.0 22.0,675643.0,low,8.0 22.0,7,1841.0,7
675662.0 11.0 11.0,675662.0,high,11.0 11.0,8,1515.0,8
675662.0 11.0 21.0,675662.0,high,11.0 21.0,8,1989.0,8
675662.0 3.0 11.0,675662.0,high,3.0 11.0,8,2042.0,8
675662.0 4.0 21.0,675662.0,high,4.0 21.0,8,1880.0,8
675662.0 7.0 11.0,675662.0,high,7.0 11.0,8,1859.0,8
675662.0 8.0 21.0,675662.0,high,8.0 21.0,8,1957.0,8
675662.0 11.0 12.0,675662.0,low,11.0 12.0,8,1854.0,8
675662.0 11.0 22.0,675662.0,low,11.0 22.0,7,1800.0,7
675662.0 3.0 12.0,675662.0,low,3.0 12.0,7,1781.0,7
675662.0 4.0 22.0,675662.0,low,4.0 22.0,7,1552.0,7
675662.0 7.0 12.0,675662.0,low,7.0 12.0,8,1656.0,8
675662.0 8.0 22.0,675662.0,low,8.0 22.0,7,1848.0,7
675664.0 11.0 11.0,675664.0,high,11.0 11.0,8,2019.0,8
675664.0 11.0 21.0,675664.0,high,11.0 21.0,8,2264.0,8
675664.0 3.0 11.0,675664.0,high,3.0 11.0,6,1954.0,6
675664.0 4.0 21.0,675664.0,high,4.0 21.0,8,2345.0,8
675664.0 7.0 11.0,675664.0,high,7.0 11.0,8,2410.0,8
675664.0 8.0 21.0,675664.0,high,8.0 21.0,8,2128.0,8
675664.0 11.0 12.0,675664.0,low,11.0 12.0,7,6373.0,7
675664.0 11.0 22.0,675664.0,low,11.0 22.0,7,1904.0,7
675664.0 3.0 12.0,675664.0,low,3.0 12.0,3,1834.0,3
675664.0 4.0 22.0,675664.0,low,4.0 22.0,8,2701.0,8
675664.0 7.0 12.0,675664.0,low,7.0 12.0,8,2278.0,8
675664.0 8.0 22.0,675664.0,low,8.0 22.0,8,8648.0,8
675665.0 11.0 12.0,675665.0,high,11.0 12.0,8,1550.0,8
675665.0 11.0 22.0,675665.0,high,11.0 22.0,7,1323.0,7
675665.0 3.0 12.0,675665.0,high,3.0 12.0,8,1536.0,8
675665.0 4.0 22.0,675665.0,high,4.0 22.0,8,1758.0,8
675665.0 7.0 12.0,675665.0,high,7.0 12.0,8,1853.0,8
675665.0 8.0 22.0,675665.0,high,8.0 22.0,7,1651.0,7
675665.0 11.0 11.0,675665.0,low,11.0 11.0,8,1715.0,8
675665.0 11.0 21.0,675665.0,low,11.0 21.0,8,1803.0,8
675665.0 3.0 11.0,675665.0,low,3.0 11.0,4,2027.0,4
675665.0 4.0 21.0,675665.0,low,4.0 21.0,6,1628.0,6
675665.0 7.0 11.0,675665.0,low,7.0 11.0,7,1979.0,7
675665.0 8.0 21.0,675665.0,low,8.0 21.0,8,1483.0,8
675670.0 11.0 12.0,675670.0,high,11.0 12.0,7,2113.0,7
675670.0 11.0 22.0,675670.0,high,11.0 22.0,8,2126.0,8
675670.0 3.0 12.0,675670.0,high,3.0 12.0,7,2427.0,7
675670.0 4.0 22.0,675670.0,high,4.0 22.0,7,2477.0,7
675670.0 7.0 12.0,675670.0,high,7.0 12.0,8,2024.0,8
675670.0 8.0 22.0,675670.0,high,8.0 22.0,8,2308.0,8
675670.0 11.0 11.0,675670.0,low,11.0 11.0,8,2142.0,8
675670.0 11.0 21.0,675670.0,low,11.0 21.0,8,2247.0,8
675670.0 3.0 11.0,675670.0,low,3.0 11.0,7,2675.0,7
675670.0 4.0 21.0,675670.0,low,4.0 21.0,8,2156.0,8
675670.0 7.0 11.0,675670.0,low,7.0 11.0,7,2006.0,7
675670.0 8.0 21.0,675670.0,low,8.0 21.0,8,2110.0,8
675690.0 11.0 12.0,675690.0,high,11.0 12.0,8,2129.0,8
675690.0 11.0 22.0,675690.0,high,11.0 22.0,8,2134.0,8
675690.0 3.0 12.0,675690.0,high,3.0 12.0,7,1833.0,7
675690.0 4.0 22.0,675690.0,high,4.0 22.0,6,2378.0,6
675690.0 7.0 12.0,675690.0,high,7.0 12.0,8,2292.0,8
675690.0 8.0 22.0,675690.0,high,8.0 22.0,8,1868.0,8
675690.0 11.0 11.0,675690.0,low,11.0 11.0,6,1982.0,6
675690.0 11.0 21.0,675690.0,low,11.0 21.0,7,2171.0,7
675690.0 3.0 11.0,675690.0,low,3.0 11.0,8,3024.0,8
675690.0 4.0 21.0,675690.0,low,4.0 21.0,8,1724.0,8
675690.0 7.0 11.0,675690.0,low,7.0 11.0,8,2013.0,8
675690.0 8.0 21.0,675690.0,low,8.0 21.0,6,2124.0,6
675732.0 11.0 11.0,675732.0,high,11.0 11.0,7,1765.0,7
675732.0 11.0 21.0,675732.0,high,11.0 21.0,8,1887.0,8
675732.0 3.0 11.0,675732.0,high,3.0 11.0,8,1836.0,8
675732.0 4.0 21.0,675732.0,high,4.0 21.0,7,2167.0,7
675732.0 7.0 11.0,675732.0,high,7.0 11.0,8,1990.0,8
675732.0 8.0 21.0,675732.0,high,8.0 21.0,8,2221.0,8
675732.0 11.0 12.0,675732.0,low,11.0 12.0,8,1929.0,8
675732.0 11.0 22.0,675732.0,low,11.0 22.0,8,2013.0,8
675732.0 3.0 12.0,675732.0,low,3.0 12.0,7,2184.0,7
675732.0 4.0 22.0,675732.0,low,4.0 22.0,6,2197.0,6
675732.0 7.0 12.0,675732.0,low,7.0 12.0,7,1963.0,7
675732.0 8.0 22.0,675732.0,low,8.0 22.0,7,2333.0,7
676774.0 11.0 11.0,676774.0,high,11.0 11.0,8,2263.0,8
676774.0 11.0 21.0,676774.0,high,11.0 21.0,8,2782.0,8
676774.0 3.0 11.0,676774.0,high,3.0 11.0,8,2465.0,8
676774.0 4.0 21.0,676774.0,high,4.0 21.0,8,2985.0,8
676774.0 7.0 11.0,676774.0,high,7.0 11.0,8,2138.0,8
676774.0 8.0 21.0,676774.0,high,8.0 21.0,8,2841.0,8
676774.0 11.0 12.0,676774.0,low,11.0 12.0,8,2392.0,8
676774.0 11.0 22.0,676774.0,low,11.0 22.0,8,2541.0,8
676774.0 3.0 12.0,676774.0,low,3.0 12.0,8,2445.0,8
676774.0 4.0 22.0,676774.0,low,4.0 22.0,8,2441.0,8
676774.0 7.0 12.0,676774.0,low,7.0 12.0,8,2353.0,8
676774.0 8.0 22.0,676774.0,low,8.0 22.0,8,2363.0,8
680108.0 11.0 11.0,680108.0,high,11.0 11.0,8,2116.0,8
680108.0 11.0 21.0,680108.0,high,11.0 21.0,7,2419.0,7
680108.0 3.0 11.0,680108.0,high,3.0 11.0,7,1977.0,7
680108.0 4.0 21.0,680108.0,high,4.0 21.0,8,2302.0,8
680108.0 7.0 11.0,680108.0,high,7.0 11.0,8,2352.0,8
680108.0 8.0 21.0,680108.0,high,8.0 21.0,8,2076.0,8
680108.0 11.0 12.0,680108.0,low,11.0 12.0,6,2208.0,6
680108.0 11.0 22.0,680108.0,low,11.0 22.0,8,2030.0,8
680108.0 3.0 12.0,680108.0,low,3.0 12.0,8,2131.0,8
680108.0 4.0 22.0,680108.0,low,4.0 22.0,8,2189.0,8
680108.0 7.0 12.0,680108.0,low,7.0 12.0,8,2468.0,8
680108.0 8.0 22.0,680108.0,low,8.0 22.0,8,2787.0,8
680109.0 11.0 11.0,680109.0,high,11.0 11.0,8,2196.0,8
680109.0 11.0 21.0,680109.0,high,11.0 21.0,8,2043.0,8
680109.0 3.0 11.0,680109.0,high,3.0 11.0,8,2302.0,8
680109.0 4.0 21.0,680109.0,high,4.0 21.0,8,2059.0,8
680109.0 7.0 11.0,680109.0,high,7.0 11.0,8,1909.0,8
680109.0 8.0 21.0,680109.0,high,8.0 21.0,7,2325.0,7
680109.0 11.0 12.0,680109.0,low,11.0 12.0,8,2321.0,8
680109.0 11.0 22.0,680109.0,low,11.0 22.0,6,2070.0,6
680109.0 3.0 12.0,680109.0,low,3.0 12.0,8,2245.0,8
680109.0 4.0 22.0,680109.0,low,4.0 22.0,8,1757.0,8
680109.0 7.0 12.0,680109.0,low,7.0 12.0,8,1963.0,8
680109.0 8.0 22.0,680109.0,low,8.0 22.0,8,2139.0,8
680110.0 11.0 11.0,680110.0,high,11.0 11.0,8,2496.0,8
680110.0 11.0 21.0,680110.0,high,11.0 21.0,7,2306.0,7
680110.0 3.0 11.0,680110.0,high,3.0 11.0,7,2087.0,7
680110.0 4.0 21.0,680110.0,high,4.0 21.0,7,2060.0,7
680110.0 7.0 11.0,680110.0,high,7.0 11.0,6,2068.0,6
680110.0 8.0 21.0,680110.0,high,8.0 21.0,7,1793.0,7
680110.0 11.0 12.0,680110.0,low,11.0 12.0,7,2084.0,7
680110.0 11.0 22.0,680110.0,low,11.0 22.0,7,2496.0,7
680110.0 3.0 12.0,680110.0,low,3.0 12.0,8,2098.0,8
680110.0 4.0 22.0,680110.0,low,4.0 22.0,7,1865.0,7
680110.0 7.0 12.0,680110.0,low,7.0 12.0,7,2058.0,7
680110.0 8.0 22.0,680110.0,low,8.0 22.0,7,2017.0,7
680112.0 11.0 11.0,680112.0,high,11.0 11.0,7,1970.0,7
680112.0 11.0 21.0,680112.0,high,11.0 21.0,8,2033.0,8
680112.0 3.0 11.0,680112.0,high,3.0 11.0,7,2465.0,7
680112.0 4.0 21.0,680112.0,high,4.0 21.0,8,2433.0,8
680112.0 7.0 11.0,680112.0,high,7.0 11.0,7,2578.0,7
680112.0 8.0 21.0,680112.0,high,8.0 21.0,8,2075.0,8
680112.0 11.0 12.0,680112.0,low,11.0 12.0,7,2341.0,7
680112.0 11.0 22.0,680112.0,low,11.0 22.0,8,2437.0,8
680112.0 3.0 12.0,680112.0,low,3.0 12.0,8,2613.0,8
680112.0 4.0 22.0,680112.0,low,4.0 22.0,8,2272.0,8
680112.0 7.0 12.0,680112.0,low,7.0 12.0,8,2382.0,8
680112.0 8.0 22.0,680112.0,low,8.0 22.0,8,2373.0,8
680113.0 11.0 11.0,680113.0,high,11.0 11.0,8,1906.0,8
680113.0 11.0 21.0,680113.0,high,11.0 21.0,8,1661.0,8
680113.0 3.0 11.0,680113.0,high,3.0 11.0,8,2547.0,8
680113.0 4.0 21.0,680113.0,high,4.0 21.0,8,1929.0,8
680113.0 7.0 11.0,680113.0,high,7.0 11.0,8,1921.0,8
680113.0 8.0 21.0,680113.0,high,8.0 21.0,8,1746.0,8
680113.0 11.0 12.0,680113.0,low,11.0 12.0,8,1830.0,8
680113.0 11.0 22.0,680113.0,low,11.0 22.0,7,1698.0,7
680113.0 3.0 12.0,680113.0,low,3.0 12.0,8,2414.0,8
680113.0 4.0 22.0,680113.0,low,4.0 22.0,8,2463.0,8
680113.0 7.0 12.0,680113.0,low,7.0 12.0,7,1857.0,7
680113.0 8.0 22.0,680113.0,low,8.0 22.0,7,2264.0,7
680118.0 11.0 12.0,680118.0,high,11.0 12.0,7,1753.0,7
680118.0 11.0 22.0,680118.0,high,11.0 22.0,8,1837.0,8
680118.0 3.0 12.0,680118.0,high,3.0 12.0,7,1617.0,7
680118.0 4.0 22.0,680118.0,high,4.0 22.0,8,2199.0,8
680118.0 7.0 12.0,680118.0,high,7.0 12.0,7,1940.0,7
680118.0 8.0 22.0,680118.0,high,8.0 22.0,7,3681.0,7
680118.0 11.0 11.0,680118.0,low,11.0 11.0,6,1646.0,6
680118.0 11.0 21.0,680118.0,low,11.0 21.0,7,3047.0,7
680118.0 3.0 11.0,680118.0,low,3.0 11.0,7,1734.0,7
680118.0 4.0 21.0,680118.0,low,4.0 21.0,8,1674.0,8
680118.0 7.0 11.0,680118.0,low,7.0 11.0,8,1699.0,8
680118.0 8.0 21.0,680118.0,low,8.0 21.0,2,1687.0,2
680119.0 11.0 12.0,680119.0,high,11.0 12.0,7,1629.0,7
680119.0 11.0 22.0,680119.0,high,11.0 22.0,7,1763.0,7
680119.0 3.0 12.0,680119.0,high,3.0 12.0,8,1770.0,8
680119.0 4.0 22.0,680119.0,high,4.0 22.0,8,1728.0,5
680119.0 7.0 12.0,680119.0,high,7.0 12.0,7,1648.0,7
680119.0 8.0 22.0,680119.0,high,8.0 22.0,6,1653.0,6
680119.0 11.0 11.0,680119.0,low,11.0 11.0,6,1612.0,6
680119.0 11.0 21.0,680119.0,low,11.0 21.0,6,1694.0,6
680119.0 3.0 11.0,680119.0,low,3.0 11.0,4,1620.0,4
680119.0 4.0 21.0,680119.0,low,4.0 21.0,4,1666.0,4
680119.0 7.0 11.0,680119.0,low,7.0 11.0,6,1918.0,6
680119.0 8.0 21.0,680119.0,low,8.0 21.0,6,1464.0,6
680125.0 11.0 12.0,680125.0,high,11.0 12.0,8,1525.0,8
680125.0 11.0 22.0,680125.0,high,11.0 22.0,3,1433.0,3
680125.0 3.0 12.0,680125.0,high,3.0 12.0,8,1830.0,8
680125.0 4.0 22.0,680125.0,high,4.0 22.0,7,1780.0,7
680125.0 7.0 12.0,680125.0,high,7.0 12.0,8,1812.0,8
680125.0 8.0 22.0,680125.0,high,8.0 22.0,7,1844.0,7
680125.0 11.0 11.0,680125.0,low,11.0 11.0,7,1822.0,7
680125.0 11.0 21.0,680125.0,low,11.0 21.0,8,2081.0,8
680125.0 3.0 11.0,680125.0,low,3.0 11.0,8,1517.0,8
680125.0 4.0 21.0,680125.0,low,4.0 21.0,8,1695.0,8
680125.0 7.0 11.0,680125.0,low,7.0 11.0,11,1406.0,8
680125.0 8.0 21.0,680125.0,low,8.0 21.0,8,1699.0,8
680126.0 11.0 12.0,680126.0,high,11.0 12.0,8,1786.0,8
680126.0 11.0 22.0,680126.0,high,11.0 22.0,8,2686.0,8
680126.0 3.0 12.0,680126.0,high,3.0 12.0,7,1650.0,7
680126.0 4.0 22.0,680126.0,high,4.0 22.0,5,1858.0,5
680126.0 7.0 12.0,680126.0,high,7.0 12.0,8,1811.0,8
680126.0 8.0 22.0,680126.0,high,8.0 22.0,8,2063.0,8
680126.0 11.0 11.0,680126.0,low,11.0 11.0,7,1682.0,7
680126.0 11.0 21.0,680126.0,low,11.0 21.0,8,1949.0,8
680126.0 3.0 11.0,680126.0,low,3.0 11.0,8,2276.0,8
680126.0 4.0 21.0,680126.0,low,4.0 21.0,8,1733.0,8
680126.0 7.0 11.0,680126.0,low,7.0 11.0,8,1715.0,8
680126.0 8.0 21.0,680126.0,low,8.0 21.0,5,1978.0,5
680127.0 11.0 12.0,680127.0,high,11.0 12.0,8,1925.0,8
680127.0 11.0 22.0,680127.0,high,11.0 22.0,8,1828.0,8
680127.0 3.0 12.0,680127.0,high,3.0 12.0,8,2709.0,8
680127.0 4.0 22.0,680127.0,high,4.0 22.0,8,1712.0,8
680127.0 7.0 12.0,680127.0,high,7.0 12.0,8,1994.0,8
680127.0 8.0 22.0,680127.0,high,8.0 22.0,7,1948.0,7
680127.0 11.0 11.0,680127.0,low,11.0 11.0,6,3165.0,6
680127.0 11.0 21.0,680127.0,low,11.0 21.0,7,2114.0,7
680127.0 3.0 11.0,680127.0,low,3.0 11.0,4,2765.0,4
680127.0 4.0 21.0,680127.0,low,4.0 21.0,8,2571.0,8
680127.0 7.0 11.0,680127.0,low,7.0 11.0,8,2444.0,8
680127.0 8.0 21.0,680127.0,low,8.0 21.0,8,2325.0,8
680129.0 11.0 12.0,680129.0,high,11.0 12.0,8,2049.0,8
680129.0 11.0 22.0,680129.0,high,11.0 22.0,8,2388.0,8
680129.0 3.0 12.0,680129.0,high,3.0 12.0,8,2190.0,8
680129.0 4.0 22.0,680129.0,high,4.0 22.0,8,2233.0,8
680129.0 7.0 12.0,680129.0,high,7.0 12.0,8,2332.0,8
680129.0 8.0 22.0,680129.0,high,8.0 22.0,8,2244.0,8
680129.0 11.0 11.0,680129.0,low,11.0 11.0,6,2130.0,6
680129.0 11.0 21.0,680129.0,low,11.0 21.0,8,2407.0,8
680129.0 3.0 11.0,680129.0,low,3.0 11.0,8,2180.0,8
680129.0 4.0 21.0,680129.0,low,4.0 21.0,8,2290.0,8
680129.0 7.0 11.0,680129.0,low,7.0 11.0,7,1973.0,7
680129.0 8.0 21.0,680129.0,low,8.0 21.0,8,2178.0,8
680136.0 11.0 12.0,680136.0,high,11.0 12.0,8,2273.0,8
680136.0 11.0 22.0,680136.0,high,11.0 22.0,7,1659.0,7
680136.0 3.0 12.0,680136.0,high,3.0 12.0,7,1882.0,7
680136.0 4.0 22.0,680136.0,high,4.0 22.0,7,2194.0,7
680136.0 7.0 12.0,680136.0,high,7.0 12.0,7,1842.0,7
680136.0 8.0 22.0,680136.0,high,8.0 22.0,7,2024.0,7
680136.0 11.0 11.0,680136.0,low,11.0 11.0,6,1839.0,6
680136.0 11.0 21.0,680136.0,low,11.0 21.0,7,2161.0,7
680136.0 3.0 11.0,680136.0,low,3.0 11.0,7,1973.0,7
680136.0 4.0 21.0,680136.0,low,4.0 21.0,7,1935.0,7
680136.0 7.0 11.0,680136.0,low,7.0 11.0,7,2088.0,7
680136.0 8.0 21.0,680136.0,low,8.0 21.0,6,1831.0,6
680155.0 11.0 12.0,680155.0,high,11.0 12.0,8,2960.0,8
680155.0 11.0 22.0,680155.0,high,11.0 22.0,8,2477.0,8
680155.0 4.0 22.0,680155.0,high,4.0 22.0,8,2971.0,8
680155.0 7.0 12.0,680155.0,high,7.0 12.0,8,4654.0,8
680155.0 8.0 22.0,680155.0,high,8.0 22.0,8,2588.0,8
680155.0 11.0 11.0,680155.0,low,11.0 11.0,8,2821.0,8
680155.0 11.0 21.0,680155.0,low,11.0 21.0,7,2516.0,7
680155.0 3.0 11.0,680155.0,low,3.0 11.0,8,3445.0,8
680155.0 4.0 21.0,680155.0,low,4.0 21.0,8,2836.0,8
680155.0 7.0 11.0,680155.0,low,7.0 11.0,8,2977.0,8
680155.0 8.0 21.0,680155.0,low,8.0 21.0,8,2748.0,8
680156.0 11.0 11.0,680156.0,high,11.0 11.0,8,2202.0,8
680156.0 11.0 21.0,680156.0,high,11.0 21.0,8,1990.0,8
680156.0 3.0 11.0,680156.0,high,3.0 11.0,8,2177.0,8
680156.0 4.0 21.0,680156.0,high,4.0 21.0,8,2051.0,8
680156.0 7.0 11.0,680156.0,high,7.0 11.0,7,2253.0,7
680156.0 8.0 21.0,680156.0,high,8.0 21.0,7,1838.0,7
680156.0 11.0 12.0,680156.0,low,11.0 12.0,8,2103.0,8
680156.0 11.0 22.0,680156.0,low,11.0 22.0,8,2052.0,8
680156.0 3.0 12.0,680156.0,low,3.0 12.0,8,2070.0,8
680156.0 4.0 22.0,680156.0,low,4.0 22.0,8,2182.0,8
680156.0 7.0 12.0,680156.0,low,7.0 12.0,8,2192.0,8
680156.0 8.0 22.0,680156.0,low,8.0 22.0,8,1819.0,8
680167.0 11.0 11.0,680167.0,high,11.0 11.0,7,2245.0,7
680167.0 11.0 21.0,680167.0,high,11.0 21.0,7,2268.0,7
680167.0 3.0 11.0,680167.0,high,3.0 11.0,7,2828.0,7
680167.0 4.0 21.0,680167.0,high,4.0 21.0,5,2565.0,5
680167.0 7.0 11.0,680167.0,high,7.0 11.0,7,2108.0,7
680167.0 8.0 21.0,680167.0,high,8.0 21.0,7,2505.0,7
680167.0 11.0 12.0,680167.0,low,11.0 12.0,7,2370.0,7
680167.0 11.0 22.0,680167.0,low,11.0 22.0,7,2056.0,7
680167.0 3.0 12.0,680167.0,low,3.0 12.0,7,2188.0,7
680167.0 4.0 22.0,680167.0,low,4.0 22.0,7,1680.0,7
680167.0 7.0 12.0,680167.0,low,7.0 12.0,6,2267.0,6
680167.0 8.0 22.0,680167.0,low,8.0 22.0,7,2176.0,7
680168.0 11.0 11.0,680168.0,high,11.0 11.0,8,2572.0,8
680168.0 11.0 21.0,680168.0,high,11.0 21.0,8,2265.0,8
680168.0 3.0 11.0,680168.0,high,3.0 11.0,8,2257.0,8
680168.0 4.0 21.0,680168.0,high,4.0 21.0,8,2745.0,8
680168.0 7.0 11.0,680168.0,high,7.0 11.0,8,2469.0,8
680168.0 8.0 21.0,680168.0,high,8.0 21.0,8,2314.0,8
680168.0 11.0 12.0,680168.0,low,11.0 12.0,8,3454.0,8
680168.0 11.0 22.0,680168.0,low,11.0 22.0,8,2609.0,8
680168.0 3.0 12.0,680168.0,low,3.0 12.0,8,2626.0,8
680168.0 4.0 22.0,680168.0,low,4.0 22.0,8,3479.0,8
680168.0 7.0 12.0,680168.0,low,7.0 12.0,8,3030.0,8
680168.0 8.0 22.0,680168.0,low,8.0 22.0,8,2705.0,8
680257.0 11.0 11.0,680257.0,high,11.0 11.0,8,1677.0,8
680257.0 11.0 21.0,680257.0,high,11.0 21.0,7,1685.0,7
680257.0 3.0 11.0,680257.0,high,3.0 11.0,7,1870.0,7
680257.0 4.0 21.0,680257.0,high,4.0 21.0,7,1659.0,7
680257.0 7.0 11.0,680257.0,high,7.0 11.0,8,1508.0,8
680257.0 8.0 21.0,680257.0,high,8.0 21.0,8,1856.0,8
680257.0 11.0 12.0,680257.0,low,11.0 12.0,7,1810.0,7
680257.0 11.0 22.0,680257.0,low,11.0 22.0,8,1644.0,8
680257.0 3.0 12.0,680257.0,low,3.0 12.0,7,2121.0,7
680257.0 4.0 22.0,680257.0,low,4.0 22.0,7,1745.0,7
680257.0 7.0 12.0,680257.0,low,7.0 12.0,7,1737.0,7
680257.0 8.0 22.0,680257.0,low,8.0 22.0,7,1597.0,7
681086.0 11.0 11.0,681086.0,high,11.0 11.0,8,2023.0,8
681086.0 11.0 21.0,681086.0,high,11.0 21.0,7,2545.0,7
681086.0 3.0 11.0,681086.0,high,3.0 11.0,7,1794.0,7
681086.0 4.0 21.0,681086.0,high,4.0 21.0,7,1932.0,7
681086.0 7.0 11.0,681086.0,high,7.0 11.0,7,2142.0,7
681086.0 8.0 21.0,681086.0,high,8.0 21.0,7,2064.0,7
681086.0 11.0 12.0,681086.0,low,11.0 12.0,7,2146.0,7
681086.0 11.0 22.0,681086.0,low,11.0 22.0,7,2612.0,7
681086.0 3.0 12.0,681086.0,low,3.0 12.0,7,2645.0,7
681086.0 4.0 22.0,681086.0,low,4.0 22.0,8,1879.0,8
681086.0 7.0 12.0,681086.0,low,7.0 12.0,8,1939.0,8
681086.0 8.0 22.0,681086.0,low,8.0 22.0,7,2045.0,7
683238.0 11.0 12.0,683238.0,high,11.0 12.0,8,1827.0,8
683238.0 11.0 22.0,683238.0,high,11.0 22.0,8,1906.0,8
683238.0 3.0 12.0,683238.0,high,3.0 12.0,8,1814.0,8
683238.0 4.0 22.0,683238.0,high,4.0 22.0,8,2500.0,8
683238.0 7.0 12.0,683238.0,high,7.0 12.0,8,1834.0,8
683238.0 8.0 22.0,683238.0,high,8.0 22.0,8,1823.0,8
683238.0 11.0 11.0,683238.0,low,11.0 11.0,7,2024.0,7
683238.0 11.0 21.0,683238.0,low,11.0 21.0,7,1943.0,7
683238.0 3.0 11.0,683238.0,low,3.0 11.0,8,2208.0,8
683238.0 4.0 21.0,683238.0,low,4.0 21.0,7,2273.0,7
683238.0 7.0 11.0,683238.0,low,7.0 11.0,8,2329.0,8
683238.0 8.0 21.0,683238.0,low,8.0 21.0,8,2173.0,8
683239.0 11.0 12.0,683239.0,high,11.0 12.0,8,1940.0,8
683239.0 11.0 22.0,683239.0,high,11.0 22.0,8,1948.0,8
683239.0 3.0 12.0,683239.0,high,3.0 12.0,8,1767.0,8
683239.0 4.0 22.0,683239.0,high,4.0 22.0,8,1906.0,8
683239.0 7.0 12.0,683239.0,high,7.0 12.0,8,1711.0,8
683239.0 8.0 22.0,683239.0,high,8.0 22.0,8,2014.0,8
683239.0 11.0 11.0,683239.0,low,11.0 11.0,8,1400.0,8
683239.0 11.0 21.0,683239.0,low,11.0 21.0,8,1441.0,8
683239.0 3.0 11.0,683239.0,low,3.0 11.0,8,2701.0,8
683239.0 4.0 21.0,683239.0,low,4.0 21.0,8,1425.0,8
683239.0 7.0 11.0,683239.0,low,7.0 11.0,8,1511.0,8
683239.0 8.0 21.0,683239.0,low,8.0 21.0,8,1634.0,8
683240.0 11.0 12.0,683240.0,high,11.0 12.0,8,2531.0,8
683240.0 11.0 22.0,683240.0,high,11.0 22.0,8,1919.0,8
683240.0 3.0 12.0,683240.0,high,3.0 12.0,8,1901.0,8
683240.0 4.0 22.0,683240.0,high,4.0 22.0,8,2297.0,8
683240.0 7.0 12.0,683240.0,high,7.0 12.0,8,2180.0,8
683240.0 8.0 22.0,683240.0,high,8.0 22.0,8,2562.0,8
683240.0 11.0 11.0,683240.0,low,11.0 11.0,8,1946.0,8
683240.0 11.0 21.0,683240.0,low,11.0 21.0,8,2538.0,8
683240.0 3.0 11.0,683240.0,low,3.0 11.0,8,2392.0,8
683240.0 4.0 21.0,683240.0,low,4.0 21.0,8,1853.0,8
683240.0 7.0 11.0,683240.0,low,7.0 11.0,8,2215.0,8
683240.0 8.0 21.0,683240.0,low,8.0 21.0,8,1845.0,8
683241.0 11.0 11.0,683241.0,high,11.0 11.0,4,2773.0,4
683241.0 11.0 21.0,683241.0,high,11.0 21.0,8,2482.0,8
683241.0 3.0 11.0,683241.0,high,3.0 11.0,8,2070.0,8
683241.0 4.0 21.0,683241.0,high,4.0 21.0,8,2359.0,8
683241.0 7.0 11.0,683241.0,high,7.0 11.0,8,2378.0,8
683241.0 8.0 21.0,683241.0,high,8.0 21.0,8,2468.0,8
683241.0 11.0 12.0,683241.0,low,11.0 12.0,8,3259.0,8
683241.0 11.0 22.0,683241.0,low,11.0 22.0,4,3226.0,4
683241.0 3.0 12.0,683241.0,low,3.0 12.0,8,3151.0,8
683241.0 4.0 22.0,683241.0,low,4.0 22.0,8,3944.0,8
683241.0 7.0 12.0,683241.0,low,7.0 12.0,7,2996.0,7
683241.0 8.0 22.0,683241.0,low,8.0 22.0,8,4437.0,8
683242.0 11.0 12.0,683242.0,high,11.0 12.0,8,2117.0,8
683242.0 11.0 22.0,683242.0,high,11.0 22.0,8,2889.0,8
683242.0 3.0 12.0,683242.0,high,3.0 12.0,8,2113.0,8
683242.0 4.0 22.0,683242.0,high,4.0 22.0,8,2441.0,8
683242.0 7.0 12.0,683242.0,high,7.0 12.0,8,2459.0,8
683242.0 8.0 22.0,683242.0,high,8.0 22.0,8,4915.0,8
683242.0 11.0 11.0,683242.0,low,11.0 11.0,8,2127.0,8
683242.0 11.0 21.0,683242.0,low,11.0 21.0,8,2189.0,8
683242.0 3.0 11.0,683242.0,low,3.0 11.0,8,2740.0,8
683242.0 4.0 21.0,683242.0,low,4.0 21.0,8,2422.0,8
683242.0 7.0 11.0,683242.0,low,7.0 11.0,8,2354.0,8
683242.0 8.0 21.0,683242.0,low,8.0 21.0,8,2379.0,8
683243.0 11.0 11.0,683243.0,high,11.0 11.0,8,1806.0,8
683243.0 11.0 21.0,683243.0,high,11.0 21.0,8,1891.0,8
683243.0 3.0 11.0,683243.0,high,3.0 11.0,8,2057.0,8
683243.0 4.0 21.0,683243.0,high,4.0 21.0,8,1936.0,8
683243.0 7.0 11.0,683243.0,high,7.0 11.0,8,1958.0,8
683243.0 8.0 21.0,683243.0,high,8.0 21.0,8,2044.0,8
683243.0 11.0 12.0,683243.0,low,11.0 12.0,8,1873.0,8
683243.0 11.0 22.0,683243.0,low,11.0 22.0,8,1795.0,8
683243.0 3.0 12.0,683243.0,low,3.0 12.0,8,1684.0,8
683243.0 4.0 22.0,683243.0,low,4.0 22.0,8,2188.0,8
683243.0 7.0 12.0,683243.0,low,7.0 12.0,8,2020.0,8
683243.0 8.0 22.0,683243.0,low,8.0 22.0,8,1821.0,8
683244.0 11.0 11.0,683244.0,high,11.0 11.0,7,1620.0,7
683244.0 11.0 21.0,683244.0,high,11.0 21.0,8,2225.0,8
683244.0 3.0 11.0,683244.0,high,3.0 11.0,8,1556.0,8
683244.0 4.0 21.0,683244.0,high,4.0 21.0,7,1955.0,7
683244.0 7.0 11.0,683244.0,high,7.0 11.0,7,2101.0,7
683244.0 8.0 21.0,683244.0,high,8.0 21.0,7,1957.0,7
683244.0 11.0 12.0,683244.0,low,11.0 12.0,8,2171.0,8
683244.0 11.0 22.0,683244.0,low,11.0 22.0,7,1974.0,7
683244.0 3.0 12.0,683244.0,low,3.0 12.0,1,2103.0,1
683244.0 4.0 22.0,683244.0,low,4.0 22.0,8,2037.0,8
683244.0 7.0 12.0,683244.0,low,7.0 12.0,7,1888.0,7
683244.0 8.0 22.0,683244.0,low,8.0 22.0,7,2022.0,7
683245.0 11.0 12.0,683245.0,high,11.0 12.0,7,1504.0,7
683245.0 11.0 22.0,683245.0,high,11.0 22.0,6,1660.0,6
683245.0 3.0 12.0,683245.0,high,3.0 12.0,7,1582.0,7
683245.0 4.0 22.0,683245.0,high,4.0 22.0,7,1784.0,7
683245.0 7.0 12.0,683245.0,high,7.0 12.0,7,1779.0,7
683245.0 8.0 22.0,683245.0,high,8.0 22.0,7,1551.0,7
683245.0 11.0 11.0,683245.0,low,11.0 11.0,6,1708.0,6
683245.0 11.0 21.0,683245.0,low,11.0 21.0,7,1738.0,7
683245.0 3.0 11.0,683245.0,low,3.0 11.0,7,1799.0,7
683245.0 4.0 21.0,683245.0,low,4.0 21.0,7,1664.0,7
683245.0 7.0 11.0,683245.0,low,7.0 11.0,7,1742.0,7
683245.0 8.0 21.0,683245.0,low,8.0 21.0,6,1811.0,6
683246.0 11.0 12.0,683246.0,high,11.0 12.0,8,1849.0,8
683246.0 11.0 22.0,683246.0,high,11.0 22.0,8,1878.0,8
683246.0 3.0 12.0,683246.0,high,3.0 12.0,8,1707.0,8
683246.0 4.0 22.0,683246.0,high,4.0 22.0,8,1789.0,8
683246.0 7.0 12.0,683246.0,high,7.0 12.0,8,1925.0,8
683246.0 8.0 22.0,683246.0,high,8.0 22.0,8,1701.0,8
683246.0 11.0 11.0,683246.0,low,11.0 11.0,2,1727.0,2
683246.0 11.0 21.0,683246.0,low,11.0 21.0,8,2029.0,8
683246.0 3.0 11.0,683246.0,low,3.0 11.0,8,2092.0,8
683246.0 4.0 21.0,683246.0,low,4.0 21.0,8,1734.0,8
683246.0 7.0 11.0,683246.0,low,7.0 11.0,8,1899.0,8
683246.0 8.0 21.0,683246.0,low,8.0 21.0,8,1851.0,8
683250.0 11.0 11.0,683250.0,high,11.0 11.0,8,2319.0,8
683250.0 11.0 21.0,683250.0,high,11.0 21.0,8,2238.0,8
683250.0 3.0 11.0,683250.0,high,3.0 11.0,8,2448.0,8
683250.0 4.0 21.0,683250.0,high,4.0 21.0,8,2097.0,8
683250.0 7.0 11.0,683250.0,high,7.0 11.0,8,2270.0,8
683250.0 8.0 21.0,683250.0,high,8.0 21.0,8,2240.0,8
683250.0 11.0 12.0,683250.0,low,11.0 12.0,8,2235.0,8
683250.0 11.0 22.0,683250.0,low,11.0 22.0,7,2254.0,7
683250.0 3.0 12.0,683250.0,low,3.0 12.0,8,2225.0,8
683250.0 4.0 22.0,683250.0,low,4.0 22.0,8,1954.0,8
683250.0 7.0 12.0,683250.0,low,7.0 12.0,8,2077.0,8
683250.0 8.0 22.0,683250.0,low,8.0 22.0,8,1974.0,8
683251.0 11.0 11.0,683251.0,high,11.0 11.0,8,2801.0,8
683251.0 11.0 21.0,683251.0,high,11.0 21.0,8,2529.0,8
683251.0 3.0 11.0,683251.0,high,3.0 11.0,8,2981.0,8
683251.0 4.0 21.0,683251.0,high,4.0 21.0,8,2644.0,8
683251.0 7.0 11.0,683251.0,high,7.0 11.0,8,2633.0,8
683251.0 8.0 21.0,683251.0,high,8.0 21.0,8,2489.0,8
683251.0 11.0 12.0,683251.0,low,11.0 12.0,8,2450.0,8
683251.0 11.0 22.0,683251.0,low,11.0 22.0,8,2516.0,8
683251.0 3.0 12.0,683251.0,low,3.0 12.0,8,2550.0,8
683251.0 4.0 22.0,683251.0,low,4.0 22.0,8,2397.0,8
683251.0 7.0 12.0,683251.0,low,7.0 12.0,8,2590.0,8
683251.0 8.0 22.0,683251.0,low,8.0 22.0,8,2706.0,8
683252.0 11.0 12.0,683252.0,high,11.0 12.0,8,1925.0,8
683252.0 11.0 22.0,683252.0,high,11.0 22.0,8,1763.0,8
683252.0 3.0 12.0,683252.0,high,3.0 12.0,7,1951.0,7
683252.0 4.0 22.0,683252.0,high,4.0 22.0,8,1720.0,8
683252.0 7.0 12.0,683252.0,high,7.0 12.0,8,1481.0,8
683252.0 8.0 22.0,683252.0,high,8.0 22.0,8,2308.0,8
683252.0 11.0 11.0,683252.0,low,11.0 11.0,8,1564.0,8
683252.0 11.0 21.0,683252.0,low,11.0 21.0,8,1808.0,8
683252.0 3.0 11.0,683252.0,low,3.0 11.0,8,1680.0,8
683252.0 4.0 21.0,683252.0,low,4.0 21.0,8,1600.0,8
683252.0 7.0 11.0,683252.0,low,7.0 11.0,7,1715.0,7
683252.0 8.0 21.0,683252.0,low,8.0 21.0,8,1776.0,8
683257.0 11.0 12.0,683257.0,high,11.0 12.0,8,2650.0,8
683257.0 11.0 22.0,683257.0,high,11.0 22.0,8,2703.0,8
683257.0 3.0 12.0,683257.0,high,3.0 12.0,8,2599.0,8
683257.0 4.0 22.0,683257.0,high,4.0 22.0,8,3095.0,8
683257.0 7.0 12.0,683257.0,high,7.0 12.0,8,2580.0,8
683257.0 8.0 22.0,683257.0,high,8.0 22.0,8,2840.0,8
683257.0 11.0 11.0,683257.0,low,11.0 11.0,8,2669.0,8
683257.0 11.0 21.0,683257.0,low,11.0 21.0,8,2652.0,8
683257.0 3.0 11.0,683257.0,low,3.0 11.0,8,3185.0,8
683257.0 4.0 21.0,683257.0,low,4.0 21.0,8,2523.0,8
683257.0 7.0 11.0,683257.0,low,7.0 11.0,8,2613.0,8
683257.0 8.0 21.0,683257.0,low,8.0 21.0,8,2544.0,8
683259.0 11.0 12.0,683259.0,high,11.0 12.0,7,1661.0,7
683259.0 11.0 22.0,683259.0,high,11.0 22.0,8,2224.0,8
683259.0 3.0 12.0,683259.0,high,3.0 12.0,7,1932.0,7
683259.0 4.0 22.0,683259.0,high,4.0 22.0,7,1609.0,7
683259.0 7.0 12.0,683259.0,high,7.0 12.0,7,1722.0,7
683259.0 8.0 22.0,683259.0,high,8.0 22.0,7,1928.0,7
683259.0 11.0 11.0,683259.0,low,11.0 11.0,7,1880.0,7
683259.0 11.0 21.0,683259.0,low,11.0 21.0,7,1662.0,7
683259.0 3.0 11.0,683259.0,low,3.0 11.0,8,2219.0,8
683259.0 4.0 21.0,683259.0,low,4.0 21.0,7,1829.0,7
683259.0 7.0 11.0,683259.0,low,7.0 11.0,7,1762.0,7
683259.0 8.0 21.0,683259.0,low,8.0 21.0,8,2414.0,8
683264.0 11.0 11.0,683264.0,high,11.0 11.0,8,1436.0,8
683264.0 11.0 21.0,683264.0,high,11.0 21.0,8,2073.0,8
683264.0 3.0 11.0,683264.0,high,3.0 11.0,8,2084.0,8
683264.0 4.0 21.0,683264.0,high,4.0 21.0,7,1433.0,7
683264.0 7.0 11.0,683264.0,high,7.0 11.0,8,1471.0,8
683264.0 8.0 21.0,683264.0,high,8.0 21.0,8,1611.0,8
683264.0 11.0 12.0,683264.0,low,11.0 12.0,8,1764.0,8
683264.0 11.0 22.0,683264.0,low,11.0 22.0,8,1764.0,8
683264.0 3.0 12.0,683264.0,low,3.0 12.0,8,1807.0,8
683264.0 4.0 22.0,683264.0,low,4.0 22.0,8,2077.0,8
683264.0 7.0 12.0,683264.0,low,7.0 12.0,8,2405.0,8
683264.0 8.0 22.0,683264.0,low,8.0 22.0,8,1969.0,8
683265.0 11.0 11.0,683265.0,high,11.0 11.0,7,2407.0,7
683265.0 11.0 21.0,683265.0,high,11.0 21.0,8,2089.0,8
683265.0 3.0 11.0,683265.0,high,3.0 11.0,7,1732.0,7
683265.0 4.0 21.0,683265.0,high,4.0 21.0,7,1858.0,7
683265.0 7.0 11.0,683265.0,high,7.0 11.0,6,1680.0,6
683265.0 8.0 21.0,683265.0,high,8.0 21.0,6,2228.0,6
683265.0 11.0 12.0,683265.0,low,11.0 12.0,6,2092.0,6
683265.0 11.0 22.0,683265.0,low,11.0 22.0,6,2053.0,6
683265.0 3.0 12.0,683265.0,low,3.0 12.0,6,2102.0,6
683265.0 4.0 22.0,683265.0,low,4.0 22.0,7,2255.0,7
683265.0 7.0 12.0,683265.0,low,7.0 12.0,4,1141.0,4
683265.0 8.0 22.0,683265.0,low,8.0 22.0,6,1985.0,6
683284.0 11.0 12.0,683284.0,high,11.0 12.0,7,2058.0,7
683284.0 11.0 22.0,683284.0,high,11.0 22.0,8,2119.0,8
683284.0 3.0 12.0,683284.0,high,3.0 12.0,7,1956.0,7
683284.0 4.0 22.0,683284.0,high,4.0 22.0,8,2099.0,8
683284.0 7.0 12.0,683284.0,high,7.0 12.0,7,5143.0,7
683284.0 8.0 22.0,683284.0,high,8.0 22.0,8,1810.0,8
683284.0 11.0 11.0,683284.0,low,11.0 11.0,7,1636.0,7
683284.0 11.0 21.0,683284.0,low,11.0 21.0,6,1430.0,6
683284.0 3.0 11.0,683284.0,low,3.0 11.0,6,1501.0,6
683284.0 4.0 21.0,683284.0,low,4.0 21.0,7,1746.0,7
683284.0 7.0 11.0,683284.0,low,7.0 11.0,7,1652.0,7
683284.0 8.0 21.0,683284.0,low,8.0 21.0,8,1669.0,8
683302.0 11.0 11.0,683302.0,high,11.0 11.0,8,2025.0,8
683302.0 11.0 21.0,683302.0,high,11.0 21.0,8,1626.0,8
683302.0 3.0 11.0,683302.0,high,3.0 11.0,8,2969.0,8
683302.0 4.0 21.0,683302.0,high,4.0 21.0,8,1983.0,8
683302.0 7.0 11.0,683302.0,high,7.0 11.0,8,2659.0,8
683302.0 8.0 21.0,683302.0,high,8.0 21.0,8,1882.0,8
683302.0 11.0 12.0,683302.0,low,11.0 12.0,8,2176.0,8
683302.0 11.0 22.0,683302.0,low,11.0 22.0,8,1757.0,8
683302.0 3.0 12.0,683302.0,low,3.0 12.0,8,1794.0,8
683302.0 4.0 22.0,683302.0,low,4.0 22.0,8,2092.0,8
683302.0 7.0 12.0,683302.0,low,7.0 12.0,8,2024.0,8
683302.0 8.0 22.0,683302.0,low,8.0 22.0,8,1767.0,8
683305.0 11.0 12.0,683305.0,high,11.0 12.0,8,2372.0,8
683305.0 11.0 22.0,683305.0,high,11.0 22.0,8,1868.0,8
683305.0 3.0 12.0,683305.0,high,3.0 12.0,7,1950.0,7
683305.0 4.0 22.0,683305.0,high,4.0 22.0,8,2095.0,8
683305.0 7.0 12.0,683305.0,high,7.0 12.0,8,2263.0,8
683305.0 8.0 22.0,683305.0,high,8.0 22.0,8,1979.0,8
683305.0 11.0 11.0,683305.0,low,11.0 11.0,8,2136.0,8
683305.0 11.0 21.0,683305.0,low,11.0 21.0,8,4592.0,8
683305.0 3.0 11.0,683305.0,low,3.0 11.0,8,3363.0,8
683305.0 4.0 21.0,683305.0,low,4.0 21.0,8,3312.0,8
683305.0 7.0 11.0,683305.0,low,7.0 11.0,8,2170.0,8
683305.0 8.0 21.0,683305.0,low,8.0 21.0,8,1867.0,8
683308.0 11.0 11.0,683308.0,high,11.0 11.0,8,2419.0,8
683308.0 11.0 21.0,683308.0,high,11.0 21.0,8,2088.0,8
683308.0 3.0 11.0,683308.0,high,3.0 11.0,8,2536.0,8
683308.0 4.0 21.0,683308.0,high,4.0 21.0,8,2134.0,8
683308.0 7.0 11.0,683308.0,high,7.0 11.0,8,2341.0,8
683308.0 8.0 21.0,683308.0,high,8.0 21.0,8,2318.0,8
683308.0 11.0 12.0,683308.0,low,11.0 12.0,8,2026.0,8
683308.0 11.0 22.0,683308.0,low,11.0 22.0,8,2090.0,8
683308.0 3.0 12.0,683308.0,low,3.0 12.0,8,2116.0,8
683308.0 4.0 22.0,683308.0,low,4.0 22.0,8,2825.0,8
683308.0 7.0 12.0,683308.0,low,7.0 12.0,8,2110.0,8
683308.0 8.0 22.0,683308.0,low,8.0 22.0,8,2093.0,8
683358.0 11.0 12.0,683358.0,high,11.0 12.0,7,2087.0,7
683358.0 11.0 22.0,683358.0,high,11.0 22.0,8,2106.0,8
683358.0 3.0 12.0,683358.0,high,3.0 12.0,8,2212.0,8
683358.0 4.0 22.0,683358.0,high,4.0 22.0,8,4375.0,8
683358.0 7.0 12.0,683358.0,high,7.0 12.0,7,1813.0,7
683358.0 8.0 22.0,683358.0,high,8.0 22.0,8,1635.0,8
683358.0 11.0 11.0,683358.0,low,11.0 11.0,8,2239.0,8
683358.0 11.0 21.0,683358.0,low,11.0 21.0,7,1935.0,7
683358.0 3.0 11.0,683358.0,low,3.0 11.0,8,2045.0,8
683358.0 4.0 21.0,683358.0,low,4.0 21.0,8,2275.0,8
683358.0 7.0 11.0,683358.0,low,7.0 11.0,7,1732.0,7
683358.0 8.0 21.0,683358.0,low,8.0 21.0,7,1686.0,7
684252.0 11.0 11.0,684252.0,high,11.0 11.0,7,2269.0,7
684252.0 11.0 21.0,684252.0,high,11.0 21.0,8,2406.0,8
684252.0 3.0 11.0,684252.0,high,3.0 11.0,7,2417.0,7
684252.0 4.0 21.0,684252.0,high,4.0 21.0,8,2303.0,8
684252.0 7.0 11.0,684252.0,high,7.0 11.0,8,2369.0,8
684252.0 8.0 21.0,684252.0,high,8.0 21.0,8,2822.0,8
684252.0 11.0 12.0,684252.0,low,11.0 12.0,6,2574.0,6
684252.0 11.0 22.0,684252.0,low,11.0 22.0,6,2451.0,6
684252.0 3.0 12.0,684252.0,low,3.0 12.0,8,3119.0,8
684252.0 4.0 22.0,684252.0,low,4.0 22.0,7,2153.0,7
684252.0 7.0 12.0,684252.0,low,7.0 12.0,7,1979.0,7
684252.0 8.0 22.0,684252.0,low,8.0 22.0,8,2453.0,8
684262.0 11.0 11.0,684262.0,high,11.0 11.0,8,2566.0,8
684262.0 11.0 21.0,684262.0,high,11.0 21.0,8,2453.0,8
684262.0 3.0 11.0,684262.0,high,3.0 11.0,8,2495.0,8
684262.0 4.0 21.0,684262.0,high,4.0 21.0,8,1483.0,8
684262.0 7.0 11.0,684262.0,high,7.0 11.0,8,2168.0,8
684262.0 8.0 21.0,684262.0,high,8.0 21.0,8,2230.0,8
684262.0 11.0 12.0,684262.0,low,11.0 12.0,8,2042.0,8
684262.0 11.0 22.0,684262.0,low,11.0 22.0,8,2489.0,8
684262.0 3.0 12.0,684262.0,low,3.0 12.0,8,2257.0,8
684262.0 4.0 22.0,684262.0,low,4.0 22.0,8,2142.0,8
684262.0 7.0 12.0,684262.0,low,7.0 12.0,8,2315.0,8
684262.0 8.0 22.0,684262.0,low,8.0 22.0,8,2234.0,8
